Part protocol
File name;Part_Press_MP-001_2019-10-17_10-37-22__NOK.csv
Protocol version;6.00.03

Index;Result information;Process values - curve related;Process values - EO related;Evaluation objects settings;Switch signal settings;Device information;Servo;Channel-X settings;Channel-Y settings;Cycle control settings;Evaluation settings;Trigger Y settings;Block settings;Measuring curve;Measuring points;Sequence;
Line;10;30;40;70;100;120;140;150;190;220;240;250;260;270;280;2510;



Result information
Date;2019/10/17
Time;10:37:22
Cycle number;145
Total result;NOK
Triggered switch signals;
Part serial number;
Measuring program name;-----
Measuring program number;1
Zero X offset;0.00;mm
Tara Y offset;0.01;kN









Process values - curve related
Block X;369.98;mm;XMIN-X;0.00;mm
Block Y;10.72;kN;XMIN-Y;0.00;kN
Ref X;0.00;mm;XMAX-X;369.98;mm
Peak-peak X;369.98;mm;XMAX-Y;10.72;kN
Peak-peak Y;16.17;kN;YMIN-X;11.10;mm
;;;YMIN-Y;-0.98;kN
;;;YMAX-X;320.56;mm
;;;YMAX-Y;15.20;kN

Process values - EO related;Result;Entry;Exit;XMIN-X;XMIN-Y;XMAX-X;XMAX-Y;YMIN-Y;YMIN-X;YMAX-Y;YMAX-X;Calculated result;NOK cause;Violation X;Violation Y;Ref X;Ref Y;X at Delta-Y;Entrance-X;Entrance-Y;Exit-X;Exit-Y
;;;;mm;kN;mm;kN;kN;mm;kN;mm;-;-;mm;kN;mm;kN;mm;mm;kN;mm;kN
EO-01;None;
EO-02;None;
EO-03;None;
EO-04;None;
EO-05;None;
EO-06;None;
EO-07;None;
EO-08;None;
EO-09;None;
EO-10;None;


















Evaluation objects settings;Reaction;X reference;Y-Reference;XMin;XMax;YMin;YMax;Entry;Exit;Curve part;Catch zone X;Catch zone Y;EO Name;Description;Re-entry ignored;Generate statistics;X-Hysteresis;Y-Hysteresis;Down sampling rate;Calc limit min;Calc limit max;Grad limit min;Grad limit max;Hyst limit min;Hyst limit max;Speed limit min;Speed limit max;Time limit min;Time limit max;Is curve inside box;GetRef type;CalcInput1 | dx;CalcInput2 | dx;Calc operation;Work limit min;Work limit max;Average limit min;Average limit max;Max bending;Detection dX;Signal;Operation;State;Visualization offset X;Visualization offset Y;Delta-Y Max;X1Min;X1Max;X2Min;X2Max;Y1Min;Y1Max;Y2Min;Y2Max;-
EO-01;OFF
EO-02;OFF
EO-03;OFF
EO-04;OFF
EO-05;OFF
EO-06;OFF
EO-07;OFF
EO-08;OFF
EO-09;OFF
EO-10;OFF



















Switch signal settings;Channel;Threshold at;;Trigger from;Reference;Latch until
Type S1;OFF
Type S2;OFF

















Device information
Device type;maXYmos NC
Device type number;5847B0
Device serial number;05597NC
Firmware version;1.5.60 (r483ab8)
-
-
-
-
-
IP Address;192.168.1.21
Network name;Press
Profibus address;10
-
-
-
Device name;Press
Company name;
Comment;

Servo
Servo version;n/a;Servo max. speed;300.000;mm/s
Type NC Joining Module;n/a;Range min.;0.00;mm
Serial number NC j.mod.;n/a;Range max.;400.00;mm
Brake;Holding Brake 5.03 Nm;Servo reference position;0.00;mm
Operating mode;Manual Work;Max. jog speed;10.000;mm/s
Brake test;Disabled;Jog. range min;0.00;mm
Automatic power;False;Jog. range max;400.00;mm
;;Reference speed;10.000;mm/s

Channel-X settings
Use the settings from global setup;True
Sensor-X type;Servo
Unit;mm
Used range from;0.00;mm
Used range to;400.00;mm
Decimal places;2 (iiiii.ff)
-
-
-
-
-
Test point;0.00;mm
Tolerance;2.00;mm
Enable sensor test by dig-input;TRUE
Zoom from;0.00;mm
Zoom to;100.00;mm
Master Measurement Enable;FALSE
Master Measurement Nominal Position;0.00;mm
Encoder interpolation factor;-
Encoder electrical interface;-
Encoder referencing type;-
Encoder referencing edge;-
Encoder pulses per minute;-
Encoder use every nth-mark;-
Reference;-
Encoder reference points;-
Encoder coding;-
Encoder width;-
Encoder optimization;-
Encoder clock frequency;-
Termination resistor;-








Channel-Y settings
Use the settings from global setup;True
Sensor-Y type;Strain Gage
Unit;kN
Used range from;0.00;kN
Used range to;60.00;kN
Decimal places;2 (iiiii.ff)
Scaling by;Calibration Sheet
Sensitivity;60.00;kN;1.01440;mV/V
Zero point;0.00;kN;0.00634;mV/V
Invert signal;FALSE
Filter;OFF
Piezo reset;-
Test point;0.06;kN
Tolerance;6.00;kN
Enable sensor test by dig-input;FALSE
Zoom from;0.00;kN
Zoom to;1000.00;kN












Cycle control settings
Use the settings from global setup;True
Measuring function;Y (X, t)
Delta-X;User-Defined;0.1000;mm
START condition;Dig-Input
STOP condition;Dig-Input
Cycle time out;500.000;s
Turning point LEFT;NONE
Turning point RIGHT;YMAX
Cut curve at;NONE
Gradient Delta X;-









Evaluation settings
Capture only first NOK-EO for statistics;False
Hysteresis-X;0.0;%
Hysteresis-Y;0.0;%






Trigger Y settings
Threshold;0.00;kN
Value X at Trigger Y;0.00;mm
Approach from;BELOW






Block settings
Value X at block;XMAX
Block at;0.00;mm







Measuring curve
Number of measuring points;2220
Ref. Graph on;ABSOLUTE
Curve segment;0;1937;1936;2220;


Time;X(ABSOLUTE);Y;X(ABSOLUTE)


s;mm;kN;mm
0.0001;0.00300;0.00326;0.00300
0.1000;0.15390;0.08015;0.15390
0.2001;0.34510;0.07320;0.34510
0.3001;0.53450;0.03096;0.53450
0.4001;0.72390;0.05859;0.72390
0.5001;0.91330;0.05999;0.91330
0.6002;1.10200;0.05416;1.10200
0.7002;1.29100;0.11352;1.29100
0.8002;1.48020;0.06334;1.48020
0.9003;1.66900;0.08027;1.66900
1.0003;1.85810;0.05612;1.85810
1.1003;2.04710;0.04218;2.04710
1.2003;2.23640;0.07947;2.23640
1.3004;2.42580;0.05344;2.42580
1.4004;2.61450;0.04290;2.61450
1.5004;2.80340;0.03404;2.80340
1.6005;2.99270;0.09795;2.99270
1.7005;3.18150;0.10075;3.18150
1.8005;3.37060;0.06909;3.37060
1.9005;3.55950;0.08801;3.55950
2.0006;3.74880;0.11887;3.74880
2.1006;3.93830;0.08210;3.93830
2.2006;4.12700;0.08690;4.12700
2.3007;4.31590;0.01851;4.31590
2.4007;4.50510;0.00474;4.50510
2.5007;4.69390;0.02362;4.69390
2.6007;4.88320;0.03544;4.88320
2.7008;5.07200;0.02957;5.07200
2.8008;5.26130;0.01751;5.26130
2.9008;5.45070;0.00450;5.45070
3.0009;5.63940;-0.01395;5.63940
3.1009;5.82850;-0.00684;5.82850
3.2009;6.01760;0.00829;6.01760
3.3010;6.20640;0.02849;6.20640
3.4010;6.39570;0.09272;6.39570
3.5010;6.58490;0.06302;6.58490
3.6010;6.77380;0.02222;6.77380
3.7011;6.96320;-0.01682;6.96320
3.8011;7.15190;-0.02045;7.15190
3.9011;7.34100;-0.04441;7.34100
4.0012;7.53000;-0.06585;7.53000
4.1012;7.71890;-0.03926;7.71890
4.2012;7.90820;-0.03954;7.90820
4.3012;8.09740;-0.03690;8.09740
4.4013;8.28630;-0.03155;8.28630
4.5013;8.47560;-0.06876;8.47560
4.6013;8.66440;0.01472;8.66440
4.7014;8.85350;-0.01319;8.85350
4.8014;9.04250;0.00945;9.04250
4.9014;9.23130;0.04190;9.23130
5.0014;9.42070;-0.00676;9.42070
5.1015;9.60990;-0.07579;9.60990
5.2015;9.79880;-0.07786;9.79880
5.3015;9.98810;-0.07227;9.98810
5.4016;10.17680;-0.00676;10.17680
5.5016;10.36600;-0.05882;10.36600
5.6016;10.55490;-0.02744;10.55490
5.7016;10.74370;-0.06880;10.74370
5.8017;10.93360;-0.06137;10.93360
5.9017;11.12230;-0.04301;11.12230
6.0017;11.31120;-0.08106;11.31120
6.1018;11.50050;-0.00736;11.50050
6.2018;11.68930;-0.06082;11.68930
6.3018;11.87850;0.04242;11.87850
6.4018;12.06740;0.06350;12.06740
6.5019;12.25620;0.07208;12.25620
6.6019;12.44610;0.03228;12.44610
6.7019;12.63480;0.01220;12.63480
6.8020;12.82370;0.01615;12.82370
6.9020;13.01290;0.00797;13.01290
7.0020;13.20180;0.02410;13.20180
7.1020;13.39110;-0.05990;13.39110
7.2021;13.57980;-0.04600;13.57980
7.3021;13.76870;-0.04425;13.76870
7.4021;13.95860;-0.05307;13.95860
7.5022;14.14720;-0.02497;14.14720
7.6022;14.33630;-0.04137;14.33630
7.7022;14.52540;-0.04748;14.52540
7.8022;14.71420;-0.01782;14.71420
7.9023;14.90350;-0.03231;14.90350
8.0023;15.09220;-0.04050;15.09220
8.1023;15.28120;-0.04381;15.28120
8.2024;15.47100;-0.05810;15.47100
8.3024;15.65980;-0.01678;15.65980
8.4024;15.84880;-0.04441;15.84880
8.5024;16.03780;-0.02916;16.03780
8.6025;16.22670;-0.02241;16.22670
8.7025;16.41610;-0.03391;16.41610
8.8025;16.60470;-0.00988;16.60470
8.9026;16.79410;-0.02461;16.79410
9.0026;16.98350;0.00689;16.98350
9.1026;17.17220;-0.00716;17.17220
9.2026;17.36130;0.07612;17.36130
9.3027;17.55030;0.05919;17.55030
9.4027;17.73910;0.08538;17.73910
9.5027;17.92850;0.13289;17.92850
9.6028;18.11720;0.15325;18.11720
9.7028;18.30660;0.13596;18.30660
9.8028;18.49590;0.09492;18.49590
9.9029;18.68470;0.09073;18.68470
10.0029;18.87390;0.06534;18.87390
10.1029;19.06270;0.05871;19.06270
10.2029;19.25160;0.07400;19.25160
10.3030;19.44100;0.10933;19.44100
10.4030;19.62970;0.07192;19.62970
10.5030;19.81910;0.07077;19.81910
10.6031;20.00840;0.08366;20.00840
10.7031;20.19720;0.07767;20.19720
10.8031;20.38640;0.08370;20.38640
10.9031;20.57520;0.10394;20.57520
11.0032;20.76400;0.09576;20.76400
11.1032;20.95340;0.11241;20.95340
11.2032;21.14260;0.06777;21.14260
11.3033;21.33160;0.10326;21.33160
11.4033;21.52070;0.10151;21.52070
11.5033;21.70960;0.09656;21.70960
11.6033;21.89890;0.08023;21.89890
11.7034;22.08770;0.07029;22.08770
11.8034;22.27650;0.05356;22.27650
11.9034;22.46590;0.00705;22.46590
12.0035;22.65510;-0.00808;22.65510
12.1035;22.84410;0.01895;22.84410
12.2035;23.03320;0.00797;23.03320
12.3035;23.22200;-0.00161;23.22200
12.4036;23.41140;-0.01598;23.41140
12.5036;23.60010;-0.00461;23.60010
12.6036;23.78900;0.01460;23.78900
12.7037;23.97840;0.01647;23.97840
12.8037;24.16760;0.00625;24.16760
12.9037;24.35670;-0.03894;24.35670
13.0037;24.54560;0.00003;24.54560
13.1038;24.73450;0.01995;24.73450
13.2038;24.92390;-0.01227;24.92390
13.3038;25.11260;-0.01650;25.11260
13.4039;25.30150;0.01160;25.30150
13.5039;25.49080;-0.02085;25.49080
13.6039;25.68010;-0.04700;25.68010
13.7039;25.86920;-0.03263;25.86920
13.8040;26.05810;-0.02860;26.05810
13.9040;26.24690;-0.03143;26.24690
14.0040;26.43640;-0.05906;26.43640
14.1041;26.62500;-0.07567;26.62500
14.2041;26.81400;-0.01602;26.81400
14.3041;27.00370;-0.03554;27.00370
14.4041;27.19250;-0.07303;27.19250
14.5042;27.38170;-0.03155;27.38170
14.6042;27.57060;-0.03203;27.57060
14.7042;27.75950;-0.05754;27.75950
14.8043;27.94880;-0.03882;27.94880
14.9043;28.13750;-0.06437;28.13750
15.0043;28.32650;-0.05072;28.32650
15.1043;28.51610;-0.04521;28.51610
15.2044;28.70500;-0.06784;28.70500
15.3044;28.89420;-0.06684;28.89420
15.4044;29.08300;-0.05495;29.08300
15.5045;29.27190;-0.05742;29.27190
15.6045;29.46130;-0.08525;29.46130
15.7045;29.65000;-0.06792;29.65000
15.8046;29.83900;-0.04209;29.83900
15.9046;30.02860;-0.05551;30.02860
16.0046;30.21740;-0.03942;30.21740
16.1046;30.40670;-0.07024;30.40670
16.2047;30.59550;-0.04257;30.59550
16.3047;30.78440;-0.08253;30.78440
16.4047;30.97370;-0.06417;30.97370
16.5048;31.16250;-0.06273;31.16250
16.6048;31.35200;-0.06209;31.35200
16.7048;31.54100;-0.06349;31.54100
16.8048;31.72990;-0.04820;31.72990
16.9049;31.91920;-0.04521;31.91920
17.0049;32.10790;-0.01463;32.10790
17.1049;32.29680;0.01484;32.29680
17.2050;32.48620;0.00681;32.48620
17.3050;32.67490;0.03428;32.67490
17.4050;32.86450;0.01029;32.86450
17.5050;33.05350;0.01216;33.05350
17.6051;33.24230;-0.03954;33.24230
17.7051;33.43180;-0.06241;33.43180
17.8051;33.62040;-0.04764;33.62040
17.9052;33.80930;-0.06337;33.80930
18.0052;33.99860;-0.03423;33.99860
18.1052;34.18740;-0.03171;34.18740
18.2052;34.37710;-0.05503;34.37710
18.3053;34.56590;-0.03031;34.56590
18.4053;34.75480;0.00074;34.75480
18.5053;34.94420;0.02246;34.94420
18.6054;35.13290;0.01915;35.13290
18.7054;35.32190;0.03444;35.32190
18.8054;35.51110;0.06246;35.51110
18.9054;35.70030;0.00757;35.70030
19.0055;35.88960;0.03328;35.88960
19.1055;36.07840;0.03875;36.07840
19.2055;36.26730;0.04494;36.26730
19.3056;36.45670;0.05707;36.45670
19.4056;36.64530;0.05931;36.64530
19.5056;36.83440;0.05037;36.83440
19.6056;37.02350;0.06725;37.02350
19.7057;37.21280;0.07528;37.21280
19.8057;37.40210;0.03975;37.40210
19.9057;37.59080;0.05871;37.59080
20.0058;37.77970;0.06354;37.77970
20.1058;37.96910;0.03635;37.96910
20.2058;38.15790;0.01276;38.15790
20.3058;38.34690;0.01536;38.34690
20.4059;38.53590;0.02873;38.53590
20.5059;38.72520;0.02989;38.72520
20.6059;38.91460;0.01376;38.91460
20.7060;39.10330;0.03863;39.10330
20.8060;39.29220;0.04158;39.29220
20.9060;39.48150;0.06562;39.48150
21.0060;39.67030;0.07272;39.67030
21.1061;39.85940;0.10901;39.85940
21.2061;40.04840;0.09137;40.04840
21.3061;40.23770;0.10514;40.23770
21.4062;40.42710;0.03041;40.42710
21.5062;40.61570;0.05073;40.61570
21.6062;40.80460;0.04158;40.80460
21.7062;40.99400;0.06198;40.99400
21.8063;41.18270;0.07560;41.18270
21.9063;41.37190;0.04566;41.37190
22.0063;41.56130;0.02949;41.56130
22.1064;41.75010;0.02146;41.75010
22.2064;41.93960;0.05835;41.93960
22.3064;42.12820;0.05723;42.12820
22.4065;42.31720;0.02821;42.31720
22.5065;42.50640;0.02645;42.50640
22.6065;42.69520;0.09704;42.69520
22.7065;42.88450;0.06522;42.88450
22.8066;43.07370;0.08694;43.07370
22.9066;43.26260;0.01715;43.26260
23.0066;43.45200;0.03939;43.45200
23.1067;43.64070;0.03488;43.64070
23.2067;43.82980;-0.01423;43.82980
23.3067;44.01890;0.02705;44.01890
23.4067;44.20770;0.00154;44.20770
23.5068;44.39700;0.02326;44.39700
23.6068;44.58620;0.07196;44.58620
23.7068;44.77510;0.05244;44.77510
23.8069;44.96450;0.03085;44.96450
23.9069;45.15320;0.03340;45.15320
24.0069;45.34220;0.00310;45.34220
24.1069;45.53130;-0.00245;45.53130
24.2070;45.72010;-0.00732;45.72010
24.3070;45.91000;0.00031;45.91000
24.4070;46.09870;0.02146;46.09870
24.5071;46.28760;0.01328;46.28760
24.6071;46.47690;0.02466;46.47690
24.7071;46.66570;0.01735;46.66570
24.8071;46.85470;-0.01502;46.85470
24.9072;47.04370;-0.04600;47.04370
25.0072;47.23260;-0.05527;47.23260
25.1072;47.42240;-0.05762;47.42240
25.2073;47.61110;-0.03694;47.61110
25.3073;47.80000;-0.04572;47.80000
25.4073;47.98940;-0.05239;47.98940
25.5073;48.17810;-0.04217;48.17810
25.6074;48.36730;-0.05682;48.36730
25.7074;48.55620;0.00198;48.55620
25.8074;48.74500;0.05412;48.74500
25.9075;48.93490;0.02238;48.93490
26.0075;49.12360;-0.01798;49.12360
26.1075;49.31250;0.03464;49.31250
26.2075;49.50180;0.01408;49.50180
26.3076;49.69060;0.00334;49.69060
26.4076;49.87980;0.00406;49.87980
26.5076;50.06860;0.00969;50.06860
26.6077;50.25750;0.00154;50.25750
26.7077;50.44740;0.08302;50.44740
26.8077;50.63610;-0.00033;50.63610
26.9077;50.82510;-0.03235;50.82510
27.0078;51.01420;-0.01271;51.01420
27.1078;51.20300;-0.02077;51.20300
27.2078;51.39240;0.00857;51.39240
27.3079;51.58110;-0.00113;51.58110
27.4079;51.77050;0.01963;51.77050
27.5079;51.95990;-0.02732;51.95990
27.6079;52.14850;0.00038;52.14850
27.7080;52.33760;-0.00401;52.33760
27.8080;52.52670;0.00342;52.52670
27.9080;52.71550;0.00402;52.71550
28.0081;52.90490;-0.03327;52.90490
28.1081;53.09350;-0.02752;53.09350
28.2081;53.28300;-0.02744;53.28300
28.3082;53.47230;-0.04525;53.47230
28.4082;53.66100;-0.00013;53.66100
28.5082;53.85010;0.02769;53.85010
28.6082;54.03910;0.00993;54.03910
28.7083;54.22800;0.04158;54.22800
28.8083;54.41730;0.05903;54.41730
28.9083;54.60600;0.03540;54.60600
29.0084;54.79540;0.03771;54.79540
29.1084;54.98470;-0.02501;54.98470
29.2084;55.17350;0.01033;55.17350
29.3084;55.36260;-0.03878;55.36260
29.4085;55.55160;-0.02029;55.55160
29.5085;55.74040;-0.01147;55.74040
29.6085;55.92980;-0.04010;55.92980
29.7086;56.11900;-0.00121;56.11900
29.8086;56.30790;0.01140;56.30790
29.9086;56.49720;0.01404;56.49720
30.0086;56.68590;0.00709;56.68590
30.1087;56.87510;0.02250;56.87510
30.2087;57.06400;0.03923;57.06400
30.3087;57.25280;0.04542;57.25280
30.4088;57.44230;0.05492;57.44230
30.5088;57.63140;0.03284;57.63140
30.6088;57.82040;0.03967;57.82040
30.7088;58.00970;0.08977;58.00970
30.8089;58.19840;0.10111;58.19840
30.9089;58.38770;0.14893;58.38770
31.0089;58.57640;0.10805;58.57640
31.1090;58.76530;0.10179;58.76530
31.2090;58.95470;0.06031;58.95470
31.3090;59.14390;0.07767;59.14390
31.4090;59.33290;0.04809;59.33290
31.5091;59.52200;0.02162;59.52200
31.6091;59.71090;0.05496;59.71090
31.7091;59.90020;0.07971;59.90020
31.8092;60.08890;0.08187;60.08890
31.9092;60.27780;0.03384;60.27780
32.0092;60.46720;0.04222;60.46720
32.1092;60.65640;0.05073;60.65640
32.2093;60.84540;0.02709;60.84540
32.3093;61.03450;0.03312;61.03450
32.4093;61.22330;0.06486;61.22330
32.5094;61.41270;0.07029;61.41270
32.6094;61.60140;0.09887;61.60140
32.7094;61.79030;0.04318;61.79030
32.8094;61.98010;0.09109;61.98010
32.9095;62.16890;0.04685;62.16890
33.0095;62.35800;0.05160;62.35800
33.1095;62.54690;0.07388;62.54690
33.2096;62.73580;0.02929;62.73580
33.3096;62.92520;0.04322;62.92520
33.4096;63.11390;0.05280;63.11390
33.5096;63.30280;0.10434;63.30280
33.6097;63.49260;0.09356;63.49260
33.7097;63.68140;0.06550;63.68140
33.8097;63.87050;0.07133;63.87050
33.9098;64.05940;0.10522;64.05940
34.0098;64.24820;0.08262;64.24820
34.1098;64.43760;0.07727;64.43760
34.2098;64.62630;0.10566;64.62630
34.3099;64.81530;0.07432;64.81530
34.4099;65.00500;-0.00017;65.00500
34.5099;65.19370;0.03855;65.19370
34.6100;65.38300;0.01564;65.38300
34.7100;65.57180;0.03719;65.57180
34.8100;65.76070;0.04889;65.76070
34.9101;65.95010;-0.01574;65.95010
35.0101;66.13880;-0.01590;66.13880
35.1101;66.32830;-0.00053;66.32830
35.2101;66.51740;0.01060;66.51740
35.3102;66.70620;0.00841;66.70620
35.4102;66.89550;0.02106;66.89550
35.5102;67.08420;-0.01578;67.08420
35.6103;67.27310;-0.00285;67.27310
35.7103;67.46260;-0.01431;67.46260
35.8103;67.65130;0.00334;67.65130
35.9103;67.84080;0.04095;67.84080
36.0104;68.02990;0.04598;68.02990
36.1104;68.21870;0.01312;68.21870
36.2104;68.40810;0.06031;68.40810
36.3105;68.59680;0.02250;68.59680
36.4105;68.78560;0.04402;68.78560
36.5105;68.97500;0.02729;68.97500
36.6105;69.16380;0.00162;69.16380
36.7106;69.35330;0.02126;69.35330
36.8106;69.54230;0.02282;69.54230
36.9106;69.73120;0.00997;69.73120
37.0107;69.92050;0.02909;69.92050
37.1107;70.10920;0.03520;70.10920
37.2107;70.29810;0.03124;70.29810
37.3107;70.48750;-0.03634;70.48750
37.4108;70.67620;-0.01335;70.67620
37.5108;70.86580;-0.04856;70.86580
37.6108;71.05480;-0.03690;71.05480
37.7109;71.24360;-0.02536;71.24360
37.8109;71.43300;0.03296;71.43300
37.9109;71.62170;-0.04165;71.62170
38.0109;71.81060;-0.02640;71.81060
38.1110;71.99990;-0.00644;71.99990
38.2110;72.18910;-0.02353;72.18910
38.3110;72.37830;-0.00976;72.37830
38.4111;72.56720;0.00314;72.56720
38.5111;72.75600;-0.00101;72.75600
38.6111;72.94550;0.04506;72.94550
38.7111;73.13420;0.04610;73.13420
38.8112;73.32320;0.04194;73.32320
38.9112;73.51230;0.04306;73.51230
39.0112;73.70160;0.06937;73.70160
39.1113;73.89090;0.04757;73.89090
39.2113;74.07960;0.07819;74.07960
39.3113;74.26850;0.11145;74.26850
39.4113;74.45790;0.04103;74.45790
39.5114;74.64660;0.06318;74.64660
39.6114;74.83560;0.06083;74.83560
39.7114;75.02470;0.00945;75.02470
39.8115;75.21400;0.02582;75.21400
39.9115;75.40340;0.00909;75.40340
40.0115;75.59210;0.02645;75.59210
40.1115;75.78100;0.01332;75.78100
40.2116;75.97040;0.01564;75.97040
40.3116;76.15910;0.04378;76.15910
40.4116;76.34820;0.00985;76.34820
40.5117;76.53760;0.02689;76.53760
40.6117;76.72650;0.02665;76.72650
40.7117;76.91590;0.02114;76.91590
40.8118;77.10460;0.01244;77.10460
40.9118;77.29350;0.00589;77.29350
41.0118;77.48280;0.01380;77.48280
41.1118;77.67160;0.00258;77.67160
41.2119;77.86070;0.07133;77.86070
41.3119;78.05010;0.01915;78.05010
41.4119;78.23900;0.00809;78.23900
41.5120;78.42840;0.03743;78.42840
41.6120;78.61700;0.05037;78.61700
41.7120;78.80600;0.03380;78.80600
41.8120;78.99530;0.04554;78.99530
41.9121;79.18410;0.07576;79.18410
42.0121;79.37320;0.10889;79.37320
42.1121;79.56260;0.09141;79.56260
42.2122;79.75140;0.11073;79.75140
42.3122;79.94090;0.11424;79.94090
42.4122;80.12950;0.10394;80.12950
42.5122;80.31850;0.10993;80.31850
42.6123;80.50770;0.09660;80.50770
42.7123;80.69650;0.10183;80.69650
42.8123;80.88630;0.12554;80.88630
42.9124;81.07500;0.11089;81.07500
43.0124;81.26390;0.11552;81.26390
43.1124;81.45330;0.09927;81.45330
43.2124;81.64200;0.08618;81.64200
43.3125;81.83100;0.12271;81.83100
43.4125;82.02010;0.09540;82.02010
43.5125;82.20900;0.10183;82.20900
43.6126;82.39870;0.05987;82.39870
43.7126;82.58750;0.09652;82.58750
43.8126;82.77640;0.05843;82.77640
43.9126;82.96570;0.10003;82.96570
44.0127;83.15450;0.05616;83.15450
44.1127;83.34350;0.08885;83.34350
44.2127;83.53260;0.07260;83.53260
44.3128;83.72140;0.06993;83.72140
44.4128;83.91120;0.06881;83.91120
44.5128;84.10000;0.07033;84.10000
44.6128;84.28890;0.06047;84.28890
44.7129;84.47820;0.05659;84.47820
44.8129;84.66700;0.07001;84.66700
44.9129;84.85600;-0.02660;84.85600
45.0130;85.04500;0.00170;85.04500
45.1130;85.23380;-0.03942;85.23380
45.2130;85.42370;-0.01215;85.42370
45.3130;85.61240;-0.02117;85.61240
45.4131;85.80130;-0.01818;85.80130
45.5131;85.99070;-0.01514;85.99070
45.6131;86.17940;0.04614;86.17940
45.7132;86.36860;0.03332;86.36860
45.8132;86.55750;-0.04856;86.55750
45.9132;86.74680;-0.04880;86.74680
46.0132;86.93620;-0.04936;86.93620
46.1133;87.12490;-0.03067;87.12490
46.2133;87.31380;-0.04185;87.31380
46.3133;87.50310;0.01132;87.50310
46.4134;87.69190;-0.00077;87.69190
46.5134;87.88110;-0.02884;87.88110
46.6134;88.06990;-0.00317;88.06990
46.7134;88.25930;0.00761;88.25930
46.8135;88.44870;-0.01095;88.44870
46.9135;88.63730;0.01919;88.63730
47.0135;88.82640;-0.00149;88.82640
47.1136;89.01550;0.00454;89.01550
47.2136;89.20430;-0.07674;89.20430
47.3136;89.39360;-0.05834;89.39360
47.4137;89.58240;-0.07291;89.58240
47.5137;89.77170;-0.07806;89.77170
47.6137;89.96110;-0.08381;89.96110
47.7137;90.14990;-0.08633;90.14990
47.8138;90.33890;-0.05874;90.33890
47.9138;90.52790;-0.08569;90.52790
48.0138;90.71680;-0.06828;90.71680
48.1139;90.90610;-0.07634;90.90610
48.2139;91.09530;-0.08349;91.09530
48.3139;91.28420;-0.07084;91.28420
48.4139;91.47360;-0.06269;91.47360
48.5140;91.66230;-0.05339;91.66230
48.6140;91.85140;-0.06301;91.85140
48.7140;92.04040;-0.07439;92.04040
48.8141;92.22920;-0.03622;92.22920
48.9141;92.41860;-0.06884;92.41860
49.0141;92.60780;-0.00788;92.60780
49.1141;92.79660;0.00829;92.79660
49.2142;92.98600;0.05025;92.98600
49.3142;93.17480;0.08310;93.17480
49.4142;93.36390;0.05444;93.36390
49.5143;93.55280;0.09328;93.55280
49.6143;93.74170;0.09540;93.74170
49.7143;93.93110;0.07220;93.93110
49.8143;94.12030;0.08306;94.12030
49.9144;94.30920;0.08769;94.30920
50.0144;94.49850;-0.00233;94.49850
50.1144;94.68720;0.01025;94.68720
50.2145;94.87640;-0.00465;94.87640
50.3145;95.06530;-0.05183;95.06530
50.4145;95.25410;-0.02628;95.25410
50.5145;95.44360;-0.02744;95.44360
50.6146;95.63270;-0.01243;95.63270
50.7146;95.82170;-0.03906;95.82170
50.8146;96.01090;-0.01055;96.01090
50.9147;96.19970;-0.00121;96.19970
51.0147;96.38900;-0.04205;96.38900
51.1147;96.57770;-0.01383;96.57770
51.2147;96.76660;-0.05654;96.76660
51.3148;96.95650;-0.03858;96.95650
51.4148;97.14520;0.02166;97.14520
51.5148;97.33420;0.04721;97.33420
51.6149;97.52330;-0.02980;97.52330
51.7149;97.71220;-0.01510;97.71220
51.8149;97.90150;-0.00197;97.90150
51.9149;98.09020;-0.03179;98.09020
52.0150;98.27910;-0.00437;98.27910
52.1150;98.46890;-0.03087;98.46890
52.2150;98.65770;0.03671;98.65770
52.3151;98.84670;0.05129;98.84670
52.4151;99.03580;0.03065;99.03580
52.5151;99.22460;0.04055;99.22460
52.6151;99.41400;0.02765;99.41400
52.7152;99.60270;0.03779;99.60270
52.8152;99.79160;0.04993;99.79160
52.9152;99.98140;0.05823;99.98140
53.0153;100.17020;0.02853;100.17020
53.1153;100.35920;0.06725;100.35920
53.2153;100.54820;-0.01830;100.54820
53.3153;100.73700;0.00158;100.73700
53.4154;100.92640;0.02438;100.92640
53.5154;101.11510;-0.03966;101.11510
53.6154;101.30450;-0.00477;101.30450
53.7155;101.49390;-0.02085;101.49390
53.8155;101.68260;-0.03714;101.68260
53.9155;101.87180;-0.01003;101.87180
54.0156;102.06070;-0.04241;102.06070
54.1156;102.24950;-0.02724;102.24950
54.2156;102.43890;-0.01267;102.43890
54.3156;102.62760;-0.00700;102.62760
54.4157;102.81700;-0.02441;102.81700
54.5157;103.00620;0.01516;103.00620
54.6157;103.19500;-0.02385;103.19500
54.7158;103.38430;-0.04529;103.38430
54.8158;103.57310;-0.01075;103.57310
54.9158;103.76200;-0.04022;103.76200
55.0158;103.95140;-0.03878;103.95140
55.1159;104.14010;-0.06189;104.14010
55.2159;104.32960;-0.04333;104.32960
55.3159;104.51870;-0.02409;104.51870
55.4160;104.70750;-0.03694;104.70750
55.5160;104.89680;-0.07108;104.89680
55.6160;105.08550;-0.04433;105.08550
55.7160;105.27450;-0.05435;105.27450
55.8161;105.46390;-0.04469;105.46390
55.9161;105.65260;-0.07155;105.65260
56.0161;105.84210;-0.05754;105.84210
56.1162;106.03110;-0.06992;106.03110
56.2162;106.22000;-0.07974;106.22000
56.3162;106.40930;-0.08317;106.40930
56.4162;106.59800;-0.06912;106.59800
56.5163;106.78690;-0.07563;106.78690
56.6163;106.97630;-0.08960;106.97630
56.7163;107.16550;-0.06656;107.16550
56.8164;107.35460;-0.04285;107.35460
56.9164;107.54360;-0.02433;107.54360
57.0164;107.73240;-0.06397;107.73240
57.1164;107.92180;-0.02616;107.92180
57.2165;108.11050;-0.05850;108.11050
57.3165;108.29940;-0.05726;108.29940
57.4165;108.48870;-0.04057;108.48870
57.5166;108.67800;-0.03806;108.67800
57.6166;108.86710;-0.04018;108.86710
57.7166;109.05600;-0.06205;109.05600
57.8166;109.24490;-0.03255;109.24490
57.9167;109.43430;-0.03858;109.43430
58.0167;109.62300;-0.04133;109.62300
58.1167;109.81190;-0.03758;109.81190
58.2168;110.00120;-0.04852;110.00120
58.3168;110.19040;-0.06137;110.19040
58.4168;110.37960;-0.08569;110.37960
58.5168;110.56850;-0.08820;110.56850
58.6169;110.75730;-0.09806;110.75730
58.7169;110.94680;-0.09694;110.94680
58.8169;111.13540;-0.00664;111.13540
58.9170;111.32440;-0.01670;111.32440
59.0170;111.51410;-0.05219;111.51410
59.1170;111.70290;-0.05211;111.70290
59.2170;111.89220;-0.04612;111.89220
59.3171;112.08090;-0.01263;112.08090
59.4171;112.26980;-0.02768;112.26980
59.5171;112.45920;-0.02832;112.45920
59.6172;112.64790;-0.02592;112.64790
59.7172;112.83700;-0.02564;112.83700
59.8172;113.02650;-0.03998;113.02650
59.9173;113.21530;-0.05535;113.21530
60.0173;113.40470;-0.00437;113.40470
60.1173;113.59340;-0.04616;113.59340
60.2173;113.78230;0.00354;113.78230
60.3174;113.97170;-0.03479;113.97170
60.4174;114.16040;-0.00628;114.16040
60.5174;114.34950;-0.05467;114.34950
60.6175;114.53890;-0.04924;114.53890
60.7175;114.72780;0.00478;114.72780
60.8175;114.91720;-0.01794;114.91720
60.9175;115.10590;-0.01431;115.10590
61.0176;115.29480;-0.01207;115.29480
61.1176;115.48410;-0.01870;115.48410
61.2176;115.67290;0.01372;115.67290
61.3177;115.86250;-0.00117;115.86250
61.4177;116.05140;0.02158;116.05140
61.5177;116.24020;-0.05175;116.24020
61.6177;116.42970;-0.01790;116.42970
61.7178;116.61840;-0.03223;116.61840
61.8178;116.80730;-0.02620;116.80730
61.9178;116.99660;-0.03570;116.99660
62.0179;117.18530;-0.02085;117.18530
62.1179;117.37500;-0.04201;117.37500
62.2179;117.56390;-0.02864;117.56390
62.3179;117.75270;-0.04872;117.75270
62.4180;117.94210;-0.04289;117.94210
62.5180;118.13080;-0.07096;118.13080
62.6180;118.31980;-0.02281;118.31980
62.7181;118.50900;-0.01407;118.50900
62.8181;118.69780;-0.03878;118.69780
62.9181;118.88750;-0.03542;118.88750
63.0181;119.07630;-0.01674;119.07630
63.1182;119.26520;-0.02784;119.26520
63.2182;119.45460;-0.03211;119.45460
63.3182;119.64330;-0.01858;119.64330
63.4183;119.83230;-0.01886;119.83230
63.5183;120.02140;-0.04541;120.02140
63.6183;120.21020;-0.01483;120.21020
63.7183;120.40010;-0.00740;120.40010
63.8184;120.58870;-0.02121;120.58870
63.9184;120.77760;0.00158;120.77760
64.0184;120.96700;-0.01934;120.96700
64.1185;121.15570;-0.01123;121.15570
64.2185;121.34480;0.04741;121.34480
64.3185;121.53380;0.04142;121.53380
64.4185;121.72320;0.04558;121.72320
64.5186;121.91250;0.04111;121.91250
64.6186;122.10120;0.05500;122.10120
64.7186;122.29020;0.01719;122.29020
64.8187;122.47950;0.03643;122.47950
64.9187;122.66820;0.03831;122.66820
65.0187;122.85730;0.01611;122.85730
65.1187;123.04630;0.01544;123.04630
65.2188;123.23560;-0.02524;123.23560
65.3188;123.42500;0.02889;123.42500
65.4188;123.61370;0.01979;123.61370
65.5189;123.80260;0.04602;123.80260
65.6189;123.99190;0.02150;123.99190
65.7189;124.18070;0.03520;124.18070
65.8189;124.36990;0.05252;124.36990
65.9190;124.55880;-0.04844;124.55880
66.0190;124.74810;-0.03594;124.74810
66.1190;124.93750;-0.06832;124.93750
66.2191;125.12620;-0.07251;125.12620
66.3191;125.31510;-0.05379;125.31510
66.4191;125.50440;-0.06664;125.50440
66.5192;125.69310;0.01831;125.69310
66.6192;125.88240;-0.01019;125.88240
66.7192;126.07170;-0.01295;126.07170
66.8192;126.26050;-0.01363;126.26050
66.9193;126.45000;-0.02712;126.45000
67.0193;126.63860;-0.03375;126.63860
67.1193;126.82760;-0.00716;126.82760
67.2194;127.01680;0.00514;127.01680
67.3194;127.20560;-0.01307;127.20560
67.4194;127.39490;-0.02660;127.39490
67.5194;127.58410;-0.01798;127.58410
67.6195;127.77300;0.00506;127.77300
67.7195;127.96240;-0.06253;127.96240
67.8195;128.15110;-0.08944;128.15110
67.9196;128.34020;-0.08249;128.34020
68.0196;128.52920;-0.10134;128.52920
68.1196;128.71810;-0.09359;128.71810
68.2196;128.90740;-0.05471;128.90740
68.3197;129.09660;-0.03802;129.09660
68.4197;129.28550;-0.04545;129.28550
68.5197;129.47480;-0.04900;129.47480
68.6198;129.66360;-0.03147;129.66360
68.7198;129.85270;-0.06185;129.85270
68.8198;130.04170;-0.03826;130.04170
68.9198;130.23050;-0.03890;130.23050
69.0199;130.41990;-0.03407;130.41990
69.1199;130.60900;-0.03966;130.60900
69.2199;130.79800;-0.02672;130.79800
69.3200;130.98730;-0.00912;130.98730
69.4200;131.17600;-0.11559;131.17600
69.5200;131.36520;-0.08345;131.36520
69.6200;131.55410;-0.09467;131.55410
69.7201;131.74300;-0.12521;131.74300
69.8201;131.93290;-0.07898;131.93290
69.9201;132.12150;-0.09794;132.12150
70.0202;132.31050;0.00545;132.31050
70.1202;132.49970;-0.02584;132.49970
70.2202;132.68850;0.00086;132.68850
70.3202;132.87770;-0.07036;132.87770
70.4203;133.06660;-0.06740;133.06660
70.5203;133.25540;-0.04125;133.25540
70.6203;133.44530;-0.06002;133.44530
70.7204;133.63400;-0.06117;133.63400
70.8204;133.82300;-0.04289;133.82300
70.9204;134.01220;-0.03119;134.01220
71.0204;134.20100;-0.05850;134.20100
71.1205;134.39030;-0.07275;134.39030
71.2205;134.57900;-0.06505;134.57900
71.3205;134.76790;-0.05942;134.76790
71.4206;134.95780;-0.07171;134.95780
71.5206;135.14650;-0.06353;135.14650
71.6206;135.33550;-0.05690;135.33550
71.7206;135.52460;-0.06409;135.52460
71.8207;135.71350;-0.08237;135.71350
71.9207;135.90280;-0.03954;135.90280
72.0207;136.09150;-0.03403;136.09150
72.1208;136.28040;-0.09231;136.28040
72.2208;136.47020;-0.03139;136.47020
72.3208;136.65900;-0.06173;136.65900
72.4209;136.84800;-0.05012;136.84800
72.5209;137.03700;-0.04656;137.03700
72.6209;137.22590;-0.03958;137.22590
72.7209;137.41530;-0.02029;137.41530
72.8210;137.60400;-0.02229;137.60400
72.9210;137.79330;-0.02648;137.79330
73.0210;137.98270;-0.02277;137.98270
73.1211;138.17140;-0.02149;138.17140
73.2211;138.36050;-0.03379;138.36050
73.3211;138.54950;-0.00313;138.54950
73.4211;138.73830;-0.00864;138.73830
73.5212;138.92770;-0.02205;138.92770
73.6212;139.11640;0.00027;139.11640
73.7212;139.30580;-0.02792;139.30580
73.8213;139.49510;-0.01686;139.49510
73.9213;139.68390;-0.00844;139.68390
74.0213;139.87310;0.00925;139.87310
74.1213;140.06190;-0.00868;140.06190
74.2214;140.25080;-0.00972;140.25080
74.3214;140.44020;-0.02145;140.44020
74.4214;140.62890;-0.01443;140.62890
74.5215;140.81830;-0.02133;140.81830
74.6215;141.00750;-0.02049;141.00750
74.7215;141.19630;-0.04401;141.19630
74.8215;141.38560;0.00713;141.38560
74.9216;141.57440;-0.05495;141.57440
75.0216;141.76330;-0.03067;141.76330
75.1216;141.95270;-0.03047;141.95270
75.2217;142.14180;0.06274;142.14180
75.3217;142.33090;0.03308;142.33090
75.4217;142.52000;0.00011;142.52000
75.5217;142.70880;0.01895;142.70880
75.6218;142.89810;0.02090;142.89810
75.7218;143.08690;0.03655;143.08690
75.8218;143.27580;0.01504;143.27580
75.9219;143.46510;0.01336;143.46510
76.0219;143.65440;-0.06804;143.65440
76.1219;143.84340;-0.03786;143.84340
76.2219;144.03240;-0.05706;144.03240
76.3220;144.22130;0.01136;144.22130
76.4220;144.41060;0.02386;144.41060
76.5220;144.59930;0.00757;144.59930
76.6221;144.78820;0.01719;144.78820
76.7221;144.97760;0.00050;144.97760
76.8221;145.16680;0.00825;145.16680
76.9221;145.35590;0.01847;145.35590
77.0222;145.54490;-0.00532;145.54490
77.1222;145.73370;-0.00728;145.73370
77.2222;145.92310;-0.04201;145.92310
77.3223;146.11180;-0.03179;146.11180
77.4223;146.30070;-0.04305;146.30070
77.5223;146.49050;-0.05024;146.49050
77.6223;146.67920;-0.07615;146.67920
77.7224;146.86840;-0.06585;146.86840
77.8224;147.05730;-0.10237;147.05730
77.9224;147.24610;-0.11279;147.24610
78.0225;147.43560;-0.11104;147.43560
78.1225;147.62430;-0.08649;147.62430
78.2225;147.81320;-0.08788;147.81320
78.3225;148.00290;-0.11938;148.00290
78.4226;148.19170;-0.14114;148.19170
78.5226;148.38090;-0.13898;148.38090
78.6226;148.56970;-0.13591;148.56970
78.7227;148.75860;-0.12980;148.75860
78.8227;148.94810;-0.13830;148.94810
78.9227;149.13670;-0.04916;149.13670
79.0228;149.32570;-0.05622;149.32570
79.1228;149.51540;-0.09247;149.51540
79.2228;149.70420;-0.06249;149.70420
79.3228;149.89350;-0.08888;149.89350
79.4229;150.08220;-0.08477;150.08220
79.5229;150.27110;-0.05267;150.27110
79.6229;150.46050;-0.06153;150.46050
79.7230;150.64920;-0.09599;150.64920
79.8230;150.83830;-0.12014;150.83830
79.9230;151.02780;-0.10213;151.02780
80.0230;151.21660;-0.12661;151.21660
80.1231;151.40600;-0.12557;151.40600
80.2231;151.59470;-0.09167;151.59470
80.3231;151.78360;-0.10277;151.78360
80.4232;151.97290;-0.11160;151.97290
80.5232;152.16170;-0.14677;152.16170
80.6232;152.35120;-0.07962;152.35120
80.7232;152.54030;-0.03726;152.54030
80.8233;152.72910;-0.03000;152.72910
80.9233;152.91850;-0.06485;152.91850
81.0233;153.10720;-0.06876;153.10720
81.1234;153.29610;-0.04672;153.29610
81.2234;153.48540;-0.05682;153.48540
81.3234;153.67420;-0.04596;153.67420
81.4234;153.86370;-0.03858;153.86370
81.5235;154.05270;-0.06101;154.05270
81.6235;154.24150;-0.12222;154.24150
81.7235;154.43100;0.02170;154.43100
81.8236;154.61960;0.01540;154.61960
81.9236;154.80850;0.03655;154.80850
82.0236;154.99780;0.03120;154.99780
82.1236;155.18660;-0.03702;155.18660
82.2237;155.37630;-0.03103;155.37630
82.3237;155.56510;-0.01538;155.56510
82.4237;155.75400;-0.02824;155.75400
82.5238;155.94340;-0.01263;155.94340
82.6238;156.13210;-0.03574;156.13210
82.7238;156.32110;-0.03427;156.32110
82.8238;156.51030;0.01412;156.51030
82.9239;156.69950;0.00410;156.69950
83.0239;156.88880;-0.00776;156.88880
83.1239;157.07760;-0.00576;157.07760
83.2240;157.26650;0.01284;157.26650
83.3240;157.45590;-0.00305;157.45590
83.4240;157.64450;-0.00516;157.64450
83.5240;157.83360;0.00565;157.83360
83.6241;158.02270;-0.01123;158.02270
83.7241;158.21200;-0.00664;158.21200
83.8241;158.40130;0.00697;158.40130
83.9242;158.59000;0.01907;158.59000
84.0242;158.77890;0.01583;158.77890
84.1242;158.96830;0.00398;158.96830
84.2242;159.15710;-0.00309;159.15710
84.3243;159.34610;-0.00105;159.34610
84.4243;159.53510;0.03029;159.53510
84.5243;159.72440;0.04681;159.72440
84.6244;159.91380;-0.01299;159.91380
84.7244;160.10250;-0.05175;160.10250
84.8244;160.29150;0.02793;160.29150
84.9245;160.48070;0.01959;160.48070
85.0245;160.66950;0.02226;160.66950
85.1245;160.85860;0.03184;160.85860
85.2245;161.04810;0.06298;161.04810
85.3246;161.23690;0.04118;161.23690
85.4246;161.42630;0.02178;161.42630
85.5246;161.61500;0.02669;161.61500
85.6247;161.80390;0.03795;161.80390
85.7247;161.99330;0.05380;161.99330
85.8247;162.18200;0.01460;162.18200
85.9247;162.37120;-0.03618;162.37120
86.0248;162.56050;-0.03858;162.56050
86.1248;162.74930;-0.06161;162.74930
86.2248;162.93880;-0.06648;162.93880
86.3249;163.12750;-0.07163;163.12750
86.4249;163.31640;-0.03191;163.31640
86.5249;163.50560;-0.03415;163.50560
86.6249;163.69440;-0.04269;163.69440
86.7250;163.88370;-0.06014;163.88370
86.8250;164.07300;0.02075;164.07300
86.9250;164.26180;-0.02740;164.26180
87.0251;164.45120;0.00829;164.45120
87.1251;164.63990;-0.00309;164.63990
87.2251;164.82890;-0.00021;164.82890
87.3251;165.01810;-0.02121;165.01810
87.4252;165.20690;-0.00397;165.20690
87.5252;165.39620;-0.02752;165.39620
87.6252;165.58540;-0.02077;165.58540
87.7253;165.77430;-0.02125;165.77430
87.8253;165.96370;-0.01443;165.96370
87.9253;166.15240;-0.02089;166.15240
88.0253;166.34140;-0.02864;166.34140
88.1254;166.53050;-0.03566;166.53050
88.2254;166.71930;-0.01706;166.71930
88.3254;166.90920;-0.06984;166.90920
88.4255;167.09790;-0.00968;167.09790
88.5255;167.28680;-0.03674;167.28680
88.6255;167.47610;-0.04093;167.47610
88.7255;167.66490;-0.02956;167.66490
88.8256;167.85400;-0.04337;167.85400
88.9256;168.04290;-0.08341;168.04290
89.0256;168.23180;-0.06145;168.23180
89.1257;168.42160;-0.06952;168.42160
89.2257;168.61040;-0.11056;168.61040
89.3257;168.79930;-0.09104;168.79930
89.4257;168.98860;-0.08788;168.98860
89.5258;169.17730;-0.10449;169.17730
89.6258;169.36650;-0.10972;169.36650
89.7258;169.55540;-0.09834;169.55540
89.8259;169.74430;-0.09866;169.74430
89.9259;169.93410;-0.10744;169.93410
90.0259;170.12280;-0.08481;170.12280
90.1259;170.31170;-0.10944;170.31170
90.2260;170.50100;-0.13088;170.50100
90.3260;170.68980;-0.10577;170.68980
90.4260;170.87900;-0.10329;170.87900
90.5261;171.06790;-0.10441;171.06790
90.6261;171.25670;-0.08880;171.25670
90.7261;171.44670;-0.09136;171.44670
90.8261;171.63530;-0.07559;171.63530
90.9262;171.82430;-0.09359;171.82430
91.0262;172.01350;-0.08960;172.01350
91.1262;172.20230;-0.07615;172.20230
91.2263;172.39150;-0.05355;172.39150
91.3263;172.58030;-0.02736;172.58030
91.4263;172.76960;-0.02780;172.76960
91.5264;172.95900;-0.02716;172.95900
91.6264;173.14780;-0.01874;173.14780
91.7264;173.33680;-0.00544;173.33680
91.8264;173.52590;-0.02644;173.52590
91.9265;173.71470;0.00011;173.71470
92.0265;173.90400;-0.02385;173.90400
92.1265;174.09270;-0.02964;174.09270
92.2266;174.28210;-0.06976;174.28210
92.3266;174.47150;-0.07603;174.47150
92.4266;174.66020;-0.06505;174.66020
92.5266;174.84930;-0.04976;174.84930
92.6267;175.03830;-0.06856;175.03830
92.7267;175.22720;-0.07056;175.22720
92.8267;175.41650;-0.05870;175.41650
92.9268;175.60520;-0.06796;175.60520
93.0268;175.79460;-0.09020;175.79460
93.1268;175.98390;-0.03051;175.98390
93.2268;176.17270;-0.05283;176.17270
93.3269;176.36180;-0.04892;176.36180
93.4269;176.55070;-0.06828;176.55070
93.5269;176.73960;-0.05998;176.73960
93.6270;176.92900;-0.05111;176.92900
93.7270;177.11820;-0.02013;177.11820
93.8270;177.30710;-0.05391;177.30710
93.9270;177.49640;-0.02620;177.49640
94.0271;177.68520;-0.01862;177.68520
94.1271;177.87440;-0.02509;177.87440
94.2271;178.06320;0.01727;178.06320
94.3272;178.25210;0.03584;178.25210
94.4272;178.44150;0.02314;178.44150
94.5272;178.63060;0.03069;178.63060
94.6272;178.81960;0.04314;178.81960
94.7273;179.00890;0.03380;179.00890
94.8273;179.19770;0.01947;179.19770
94.9273;179.38690;0.03987;179.38690
95.0274;179.57570;-0.01942;179.57570
95.1274;179.76460;-0.02896;179.76460
95.2274;179.95400;-0.04752;179.95400
95.3274;180.14310;0.03248;180.14310
95.4275;180.33210;-0.00704;180.33210
95.5275;180.52120;-0.01522;180.52120
95.6275;180.71010;-0.03678;180.71010
95.7276;180.89940;-0.00437;180.89940
95.8276;181.08810;-0.03043;181.08810
95.9276;181.27700;0.03116;181.27700
96.0276;181.46690;0.03923;181.46690
96.1277;181.65560;0.02550;181.65560
96.2277;181.84470;0.02789;181.84470
96.3277;182.03370;-0.00776;182.03370
96.4278;182.22250;0.03983;182.22250
96.5278;182.41190;0.01468;182.41190
96.6278;182.60060;0.01092;182.60060
96.7278;182.78950;0.04482;182.78950
96.8279;182.97930;0.02613;182.97930
96.9279;183.16810;-0.01698;183.16810
97.0279;183.35710;0.00841;183.35710
97.1280;183.54610;0.02418;183.54610
97.2280;183.73500;0.05220;183.73500
97.3280;183.92440;0.02039;183.92440
97.4281;184.11310;0.01883;184.11310
97.5281;184.30200;0.00031;184.30200
97.6281;184.49170;-0.01846;184.49170
97.7281;184.68060;-0.02744;184.68060
97.8282;184.86970;-0.02872;184.86970
97.9282;185.05860;0.01308;185.05860
98.0282;185.24740;-0.04664;185.24740
98.1283;185.43690;-0.01646;185.43690
98.2283;185.62550;-0.01530;185.62550
98.3283;185.81450;-0.01858;185.81450
98.4283;186.00420;-0.01738;186.00420
98.5284;186.19300;-0.01435;186.19300
98.6284;186.38220;-0.06281;186.38220
98.7284;186.57110;-0.09834;186.57110
98.8285;186.75990;-0.07371;186.75990
98.9285;186.94930;-0.09623;186.94930
99.0285;187.13800;-0.09674;187.13800
99.1285;187.32750;-0.11527;187.32750
99.2286;187.51670;-0.09627;187.51670
99.3286;187.70550;-0.15715;187.70550
99.4286;187.89470;-0.07750;187.89470
99.5287;188.08350;-0.06305;188.08350
99.6287;188.27240;-0.09850;188.27240
99.7287;188.46180;-0.11267;188.46180
99.8287;188.65050;-0.11898;188.65050
99.9288;188.84000;-0.06014;188.84000
100.0288;189.02910;-0.06461;189.02910
100.1288;189.21790;-0.08385;189.21790
100.2289;189.40730;-0.05543;189.40730
100.3289;189.59600;-0.05435;189.59600
100.4289;189.78490;-0.04760;189.78490
100.5289;189.97420;-0.05555;189.97420
100.6290;190.16300;-0.04469;190.16300
100.7290;190.35250;-0.03754;190.35250
100.8290;190.54150;-0.05347;190.54150
100.9291;190.73040;-0.02636;190.73040
101.0291;190.91970;-0.03906;190.91970
101.1291;191.10840;-0.05012;191.10840
101.2291;191.29730;-0.03251;191.29730
101.3292;191.48670;-0.05159;191.48670
101.4292;191.67590;-0.07862;191.67590
101.5292;191.86500;-0.07291;191.86500
101.6293;192.05400;-0.03079;192.05400
101.7293;192.24280;-0.03071;192.24280
101.8293;192.43220;-0.03562;192.43220
101.9293;192.62090;-0.07028;192.62090
102.0294;192.80980;-0.08441;192.80980
102.1294;192.99910;-0.08649;192.99910
102.2294;193.18830;-0.07323;193.18830
102.3295;193.37760;-0.07678;193.37760
102.4295;193.56640;-0.07211;193.56640
102.5295;193.75520;-0.05782;193.75520
102.6295;193.94470;-0.07076;193.94470
102.7296;194.13340;-0.07355;194.13340
102.8296;194.32240;-0.05870;194.32240
102.9296;194.51150;-0.04018;194.51150
103.0297;194.70080;-0.05371;194.70080
103.1297;194.89010;-0.03024;194.89010
103.2297;195.07880;-0.06353;195.07880
103.3297;195.26780;-0.04960;195.26780
103.4298;195.45720;-0.03574;195.45720
103.5298;195.64580;-0.05922;195.64580
103.6298;195.83490;-0.03383;195.83490
103.7299;196.02400;-0.06425;196.02400
103.8299;196.21330;-0.07459;196.21330
103.9299;196.40260;-0.04816;196.40260
104.0300;196.59130;-0.04692;196.59130
104.1300;196.78020;-0.05163;196.78020
104.2300;196.96960;-0.03119;196.96960
104.3300;197.15840;-0.03822;197.15840
104.4301;197.34740;0.00526;197.34740
104.5301;197.53690;0.02989;197.53690
104.6301;197.72570;0.02985;197.72570
104.7302;197.91510;0.03128;197.91510
104.8302;198.10380;0.05703;198.10380
104.9302;198.29270;0.01025;198.29270
105.0302;198.48200;0.02326;198.48200
105.1303;198.67080;-0.00201;198.67080
105.2303;198.85990;-0.00069;198.85990
105.3303;199.04940;-0.00888;199.04940
105.4304;199.23820;-0.01079;199.23820
105.5304;199.42760;0.03875;199.42760
105.6304;199.61630;0.03600;199.61630
105.7304;199.80520;-0.04688;199.80520
105.8305;199.99450;-0.00896;199.99450
105.9305;200.18330;-0.00445;200.18330
106.0305;200.37240;-0.03766;200.37240
106.1306;200.56180;-0.04257;200.56180
106.2306;200.75060;0.00965;200.75060
106.3306;200.94010;-0.00429;200.94010
106.4306;201.12870;0.00386;201.12870
106.5307;201.31770;0.04190;201.31770
106.6307;201.50690;0.03108;201.50690
106.7307;201.69570;0.04318;201.69570
106.8308;201.88550;0.07448;201.88550
106.9308;202.07420;-0.00053;202.07420
107.0308;202.26310;-0.02010;202.26310
107.1308;202.45250;-0.01343;202.45250
107.2309;202.64120;0.02063;202.64120
107.3309;202.83020;-0.00193;202.83020
107.4309;203.01930;-0.04964;203.01930
107.5310;203.20810;-0.01770;203.20810
107.6310;203.39790;-0.02596;203.39790
107.7310;203.58670;0.04091;203.58670
107.8310;203.77560;-0.00700;203.77560
107.9311;203.96500;-0.00457;203.96500
108.0311;204.15370;-0.06357;204.15370
108.1311;204.34270;-0.00892;204.34270
108.2312;204.53180;-0.02544;204.53180
108.3312;204.72070;-0.00305;204.72070
108.4312;204.91040;-0.03287;204.91040
108.5312;205.09920;-0.04233;205.09920
108.6313;205.28810;-0.03211;205.28810
108.7313;205.47740;-0.05563;205.47740
108.8313;205.66620;-0.05020;205.66620
108.9314;205.85520;-0.07543;205.85520
109.0314;206.04430;-0.04840;206.04430
109.1314;206.23310;-0.06840;206.23310
109.2314;206.42290;-0.06668;206.42290
109.3315;206.61170;-0.08237;206.61170
109.4315;206.80050;-0.06237;206.80050
109.5315;206.98990;-0.06860;206.98990
109.6316;207.17860;-0.07159;207.17860
109.7316;207.36780;-0.06768;207.36780
109.8316;207.55670;-0.07495;207.55670
109.9317;207.74600;-0.07463;207.74600
110.0317;207.93540;-0.05247;207.93540
110.1317;208.12410;-0.08840;208.12410
110.2317;208.31300;-0.06605;208.31300
110.3318;208.50230;-0.07547;208.50230
110.4318;208.69100;-0.08569;208.69100
110.5318;208.88030;-0.08585;208.88030
110.6319;209.06910;-0.07998;209.06910
110.7319;209.25850;-0.09882;209.25850
110.8319;209.44790;-0.08860;209.44790
110.9319;209.63660;-0.10082;209.63660
111.0320;209.82560;-0.08660;209.82560
111.1320;210.01470;-0.09623;210.01470
111.2320;210.20360;-0.12381;210.20360
111.3321;210.39280;-0.07507;210.39280
111.4321;210.58150;-0.07934;210.58150
111.5321;210.77090;-0.10828;210.77090
111.6321;210.96030;-0.07219;210.96030
111.7322;211.14900;-0.09690;211.14900
111.8322;211.33810;-0.09694;211.33810
111.9322;211.52710;-0.09351;211.52710
112.0323;211.71600;-0.08529;211.71600
112.1323;211.90530;-0.02493;211.90530
112.2323;212.09450;-0.02241;212.09450
112.3323;212.28340;-0.05239;212.28340
112.4324;212.47270;-0.05527;212.47270
112.5324;212.66150;-0.00912;212.66150
112.6324;212.85060;-0.03095;212.85060
112.7325;213.03960;-0.04568;213.03960
112.8325;213.22850;0.01212;213.22850
112.9325;213.41780;-0.04728;213.41780
113.0325;213.60700;0.02266;213.60700
113.1326;213.79590;-0.01846;213.79590
113.2326;213.98520;-0.03598;213.98520
113.3326;214.17400;-0.05295;214.17400
113.4327;214.36310;0.00234;214.36310
113.5327;214.55200;-0.01602;214.55200
113.6327;214.74090;-0.08102;214.74090
113.7327;214.93030;-0.07271;214.93030
113.8328;215.11950;-0.06153;215.11950
113.9328;215.30840;-0.04752;215.30840
114.0328;215.49770;-0.06768;215.49770
114.1329;215.68650;-0.06636;215.68650
114.2329;215.87570;-0.06297;215.87570
114.3329;216.06450;-0.03307;216.06450
114.4329;216.25330;-0.06892;216.25330
114.5330;216.44320;-0.05155;216.44320
114.6330;216.63190;-0.07627;216.63190
114.7330;216.82090;-0.05319;216.82090
114.8331;217.01010;-0.02285;217.01010
114.9331;217.19890;-0.06325;217.19890
115.0331;217.38820;-0.02844;217.38820
115.1331;217.57700;-0.04712;217.57700
115.2332;217.76580;-0.03331;217.76580
115.3332;217.95570;-0.01822;217.95570
115.4332;218.14440;-0.00145;218.14440
115.5333;218.33340;-0.02161;218.33340
115.6333;218.52250;-0.00193;218.52250
115.7333;218.71130;-0.00940;218.71130
115.8333;218.90070;-0.00672;218.90070
115.9334;219.08940;-0.04736;219.08940
116.0334;219.27830;0.06139;219.27830
116.1334;219.46810;0.04146;219.46810
116.2335;219.65690;0.04246;219.65690
116.3335;219.84600;0.02370;219.84600
116.4335;220.03500;0.00406;220.03500
116.5336;220.22380;-0.01690;220.22380
116.6336;220.41310;0.06929;220.41310
116.7336;220.60190;-0.00345;220.60190
116.8336;220.79080;0.01017;220.79080
116.9337;220.98060;-0.01219;220.98060
117.0337;221.16940;-0.00991;221.16940
117.1337;221.35840;-0.05143;221.35840
117.2338;221.54740;-0.00073;221.54740
117.3338;221.73630;0.00969;221.73630
117.4338;221.92570;-0.02245;221.92570
117.5338;222.11430;-0.00932;222.11430
117.6339;222.30370;-0.01746;222.30370
117.7339;222.49310;0.00985;222.49310
117.8339;222.68190;-0.01706;222.68190
117.9340;222.87100;-0.02956;222.87100
118.0340;223.05990;0.02314;223.05990
118.1340;223.24870;0.03895;223.24870
118.2340;223.43820;0.03807;223.43820
118.3341;223.62680;0.02981;223.62680
118.4341;223.81630;0.02246;223.81630
118.5341;224.00550;0.02110;224.00550
118.6342;224.19430;0.01252;224.19430
118.7342;224.38360;0.00829;224.38360
118.8342;224.57240;0.00310;224.57240
118.9342;224.76120;-0.02536;224.76120
119.0343;224.95060;-0.04265;224.95060
119.1343;225.13930;-0.04305;225.13930
119.2343;225.32880;-0.01055;225.32880
119.3344;225.51790;-0.03459;225.51790
119.4344;225.70670;-0.04157;225.70670
119.5344;225.89610;-0.04117;225.89610
119.6344;226.08480;-0.04549;226.08480
119.7345;226.27370;-0.04285;226.27370
119.8345;226.46310;-0.05602;226.46310
119.9345;226.65220;-0.03838;226.65220
120.0346;226.84130;-0.03151;226.84130
120.1346;227.03030;-0.05203;227.03030
120.2346;227.21920;-0.04477;227.21920
120.3346;227.40850;-0.03870;227.40850
120.4347;227.59720;-0.06317;227.59720
120.5347;227.78620;-0.06852;227.78620
120.6347;227.97550;-0.05694;227.97550
120.7348;228.16470;-0.02169;228.16470
120.8348;228.35380;-0.04952;228.35380
120.9348;228.54280;-0.09347;228.54280
121.0348;228.73160;-0.09191;228.73160
121.1349;228.92100;-0.06365;228.92100
121.2349;229.10970;-0.04948;229.10970
121.3349;229.29860;-0.05299;229.29860
121.4350;229.48800;-0.09551;229.48800
121.5350;229.67720;-0.05898;229.67720
121.6350;229.86630;-0.06209;229.86630
121.7350;230.05530;-0.04257;230.05530
121.8351;230.24410;-0.04620;230.24410
121.9351;230.43350;-0.02624;230.43350
122.0351;230.62220;-0.05563;230.62220
122.1352;230.81110;-0.05610;230.81110
122.2352;231.00040;-0.07339;231.00040
122.3352;231.18960;-0.05555;231.18960
122.4353;231.37890;-0.04365;231.37890
122.5353;231.56770;-0.03786;231.56770
122.6353;231.75660;-0.06992;231.75660
122.7353;231.94600;-0.08082;231.94600
122.8354;232.13470;-0.05175;232.13470
122.9354;232.32360;-0.05020;232.32360
123.0354;232.51330;-0.06185;232.51330
123.1355;232.70210;-0.04716;232.70210
123.2355;232.89140;-0.02101;232.89140
123.3355;233.08010;-0.06632;233.08010
123.4355;233.26910;-0.03431;233.26910
123.5356;233.45850;-0.05862;233.45850
123.6356;233.64710;-0.03630;233.64710
123.7356;233.83620;-0.01171;233.83620
123.8357;234.02570;-0.02532;234.02570
123.9357;234.21460;-0.01922;234.21460
124.0357;234.40390;-0.05275;234.40390
124.1357;234.59260;-0.04572;234.59260
124.2358;234.78150;-0.05934;234.78150
124.3358;234.97090;-0.01063;234.97090
124.4358;235.15960;0.03831;235.15960
124.5359;235.34870;0.02737;235.34870
124.6359;235.53820;0.05699;235.53820
124.7359;235.72700;0.05121;235.72700
124.8359;235.91640;0.01408;235.91640
124.9360;236.10510;0.07296;236.10510
125.0360;236.29400;0.06622;236.29400
125.1360;236.48330;-0.00321;236.48330
125.2361;236.67210;0.00817;236.67210
125.3361;236.86120;0.00909;236.86120
125.4361;237.05060;0.03995;237.05060
125.5361;237.23950;0.04426;237.23950
125.6362;237.42890;0.06530;237.42890
125.7362;237.61760;0.06170;237.61760
125.8362;237.80650;0.08981;237.80650
125.9363;237.99580;0.05280;237.99580
126.0363;238.18450;0.05867;238.18450
126.1363;238.37420;0.06486;238.37420
126.2363;238.56300;0.04095;238.56300
126.3364;238.75190;0.02334;238.75190
126.4364;238.94130;0.03807;238.94130
126.5364;239.13000;0.04582;239.13000
126.6365;239.31900;0.09376;239.31900
126.7365;239.50820;0.10889;239.50820
126.8365;239.69700;0.10003;239.69700
126.9365;239.88670;0.07887;239.88670
127.0366;240.07550;0.06354;240.07550
127.1366;240.26440;0.08167;240.26440
127.2366;240.45380;0.07719;240.45380
127.3367;240.64250;0.08135;240.64250
127.4367;240.83150;0.09193;240.83150
127.5367;241.02060;0.09915;241.02060
127.6367;241.20940;0.07536;241.20940
127.7368;241.39930;0.06298;241.39930
127.8368;241.58800;0.08107;241.58800
127.9368;241.77690;0.09556;241.77690
128.0369;241.96630;0.09500;241.96630
128.1369;242.15500;0.02685;242.15500
128.2369;242.34400;0.00446;242.34400
128.3369;242.53310;0.11899;242.53310
128.4370;242.72240;0.13784;242.72240
128.5370;242.91170;0.07432;242.91170
128.6370;243.10040;0.13847;243.10040
128.7371;243.28940;0.06338;243.28940
128.8371;243.47870;0.06083;243.47870
128.9371;243.66750;0.06290;243.66750
129.0372;243.85650;0.06618;243.85650
129.1372;244.04550;0.06542;244.04550
129.2372;244.23480;0.07121;244.23480
129.3372;244.42420;0.07464;244.42420
129.4373;244.61290;0.05152;244.61290
129.5373;244.80180;0.06250;244.80180
129.6373;244.99110;0.07560;244.99110
129.7374;245.17990;0.04614;245.17990
129.8374;245.36910;0.05735;245.36910
129.9374;245.55800;0.09005;245.55800
130.0374;245.74730;0.06749;245.74730
130.1375;245.93670;0.09157;245.93670
130.2375;246.12540;0.05360;246.12540
130.3375;246.31430;0.05508;246.31430
130.4376;246.50360;0.05580;246.50360
130.5376;246.69230;0.03424;246.69230
130.6376;246.88160;-0.00329;246.88160
130.7376;247.07040;-0.01015;247.07040
130.8377;247.25980;0.00569;247.25980
130.9377;247.44920;0.00038;247.44920
131.0377;247.63780;0.01132;247.63780
131.1378;247.82690;-0.00976;247.82690
131.2378;248.01600;0.00777;248.01600
131.3378;248.20480;0.01635;248.20480
131.4378;248.39410;0.00641;248.39410
131.5379;248.58330;-0.02888;248.58330
131.6379;248.77220;-0.01163;248.77220
131.7379;248.96160;0.03148;248.96160
131.8380;249.15040;0.01372;249.15040
131.9380;249.33940;0.00502;249.33940
132.0380;249.52840;-0.00213;249.52840
132.1380;249.71730;-0.01127;249.71730
132.2381;249.90660;-0.01055;249.90660
132.3381;250.09580;0.02278;250.09580
132.4381;250.28470;-0.00836;250.28470
132.5382;250.47400;0.01292;250.47400
132.6382;250.66280;0.02130;250.66280
132.7382;250.85190;0.02258;250.85190
132.8382;251.04090;0.03348;251.04090
132.9383;251.22980;0.01843;251.22980
133.0383;251.41910;0.04765;251.41910
133.1383;251.60830;0.01779;251.60830
133.2384;251.79720;0.01220;251.79720
133.3384;251.98650;0.01160;251.98650
133.4384;252.17530;0.02725;252.17530
133.5384;252.36440;0.01623;252.36440
133.6385;252.55330;0.02625;252.55330
133.7385;252.74220;0.06642;252.74220
133.8385;252.93210;0.02067;252.93210
133.9386;253.12080;0.09113;253.12080
134.0386;253.30970;0.11272;253.30970
134.1386;253.49900;0.10702;253.49900
134.2386;253.68770;0.07692;253.68770
134.3387;253.87700;0.12674;253.87700
134.4387;254.06580;0.07791;254.06580
134.5387;254.25460;0.11520;254.25460
134.6388;254.44450;0.10606;254.44450
134.7388;254.63320;0.12638;254.63320
134.8388;254.82220;0.13744;254.82220
134.9388;255.01140;0.10757;255.01140
135.0389;255.20020;0.07827;255.20020
135.1389;255.38950;0.06302;255.38950
135.2389;255.57820;0.11209;255.57820
135.3390;255.76710;0.09979;255.76710
135.4390;255.95700;0.06047;255.95700
135.5390;256.14570;0.07336;256.14570
135.6391;256.33470;0.07959;256.33470
135.7391;256.52380;0.09516;256.52380
135.8391;256.71260;0.07831;256.71260
135.9391;256.90190;0.08534;256.90190
136.0392;257.09070;0.09105;257.09070
136.1392;257.28000;0.07895;257.28000
136.2392;257.46940;0.10063;257.46940
136.3393;257.65820;0.12494;257.65820
136.4393;257.84720;0.12474;257.84720
136.5393;258.03620;0.11097;258.03620
136.6393;258.22510;0.12646;258.22510
136.7394;258.41450;0.09728;258.41450
136.8394;258.60320;0.11728;258.60320
136.9394;258.79250;0.10658;258.79250
137.0395;258.98190;0.09660;258.98190
137.1395;259.17060;0.12554;259.17060
137.2395;259.35970;0.13332;259.35970
137.3395;259.54870;0.13348;259.54870
137.4396;259.73760;0.11125;259.73760
137.5396;259.92700;0.13169;259.92700
137.6396;260.11570;0.13225;260.11570
137.7397;260.30500;0.11955;260.30500
137.8397;260.49440;0.10342;260.49440
137.9397;260.68310;0.10091;260.68310
138.0397;260.87230;0.11748;260.87230
138.1398;261.06120;0.13265;261.06120
138.2398;261.25000;0.21257;261.25000
138.3398;261.43950;0.20478;261.43950
138.4399;261.62810;0.16961;261.62810
138.5399;261.81760;0.13249;261.81760
138.6399;262.00680;0.13113;262.00680
138.7399;262.19560;0.13416;262.19560
138.8400;262.38480;0.09428;262.38480
138.9400;262.57360;0.09161;262.57360
139.0400;262.76250;0.14714;262.76250
139.1401;262.95190;0.12873;262.95190
139.2401;263.14100;0.12953;263.14100
139.3401;263.33010;0.13668;263.33010
139.4401;263.51920;0.14414;263.51920
139.5402;263.70800;0.17888;263.70800
139.6402;263.89730;0.19664;263.89730
139.7402;264.08610;0.13959;264.08610
139.8403;264.27500;0.13041;264.27500
139.9403;264.46430;0.13460;264.46430
140.0403;264.65350;0.14873;264.65350
140.1403;264.84250;0.09648;264.84250
140.2404;265.03160;0.11344;265.03160
140.3404;265.22050;0.15201;265.22050
140.4404;265.40980;0.13189;265.40980
140.5405;265.59850;0.12618;265.59850
140.6405;265.78740;0.16590;265.78740
140.7405;265.97680;0.14211;265.97680
140.8405;266.16600;0.13812;266.16600
140.9406;266.35510;0.15309;266.35510
141.0406;266.54410;0.11612;266.54410
141.1406;266.73290;0.13037;266.73290
141.2407;266.92230;0.13169;266.92230
141.3407;267.11100;0.12099;267.11100
141.4407;267.29990;0.14586;267.29990
141.5408;267.48970;0.11556;267.48970
141.6408;267.67850;0.18243;267.67850
141.7408;267.86760;0.18243;267.86760
141.8408;268.05660;0.11440;268.05660
141.9409;268.24540;0.15337;268.24540
142.0409;268.43480;0.10422;268.43480
142.1409;268.62350;0.14159;268.62350
142.2410;268.81240;0.09344;268.81240
142.3410;269.00220;0.14370;269.00220
142.4410;269.19090;0.15189;269.19090
142.5410;269.38020;0.13628;269.38020
142.6411;269.56900;0.13935;269.56900
142.7411;269.75790;0.11696;269.75790
142.8411;269.94730;0.12770;269.94730
142.9412;270.13590;0.15273;270.13590
143.0412;270.32490;0.19888;270.32490
143.1412;270.51460;0.18363;270.51460
143.2412;270.70340;0.17209;270.70340
143.3413;270.89270;0.21820;270.89270
143.4413;271.08140;0.21628;271.08140
143.5413;271.27030;0.24874;271.27030
143.6414;271.45970;0.17141;271.45970
143.7414;271.64840;0.18135;271.64840
143.8414;271.83750;0.14822;271.83750
143.9414;272.02700;0.15496;272.02700
144.0415;272.21580;0.21932;272.21580
144.1415;272.40520;0.17209;272.40520
144.2415;272.59390;0.18179;272.59390
144.3416;272.78280;0.16426;272.78280
144.4416;272.97210;0.19197;272.97210
144.5416;273.16090;0.21033;273.16090
144.6416;273.35040;0.16570;273.35040
144.7417;273.53950;0.21113;273.53950
144.8417;273.72830;0.19321;273.72830
144.9417;273.91770;0.21273;273.91770
145.0418;274.10640;0.18842;274.10640
145.1418;274.29530;0.22039;274.29530
145.2418;274.48460;0.20187;274.48460
145.3418;274.67340;0.23980;274.67340
145.4419;274.86290;0.25073;274.86290
145.5419;275.05190;0.21796;275.05190
145.6419;275.24070;0.22459;275.24070
145.7420;275.43020;0.23073;275.43020
145.8420;275.61890;0.21664;275.61890
145.9420;275.80780;0.26395;275.80780
146.0420;275.99710;0.25493;275.99710
146.1421;276.18580;0.29509;276.18580
146.2421;276.37550;0.30842;276.37550
146.3421;276.56430;0.31245;276.56430
146.4422;276.75320;0.32327;276.75320
146.5422;276.94260;0.33776;276.94260
146.6422;277.13130;0.33968;277.13130
146.7422;277.32030;0.32535;277.32030
146.8423;277.50950;0.33940;277.50950
146.9423;277.69880;0.35585;277.69880
147.0423;277.88810;0.34012;277.88810
147.1424;278.07680;0.32052;278.07680
147.2424;278.26570;0.36216;278.26570
147.3424;278.45510;0.35565;278.45510
147.4424;278.64380;0.35206;278.64380
147.5425;278.83280;0.36228;278.83280
147.6425;279.02190;0.38160;279.02190
147.7425;279.21120;0.38096;279.21120
147.8426;279.40060;0.40962;279.40060
147.9426;279.58930;0.34016;279.58930
148.0426;279.77820;0.33421;279.77820
148.1427;279.96750;0.36168;279.96750
148.2427;280.15630;0.32810;280.15630
148.3427;280.34530;0.33964;280.34530
148.4427;280.53430;0.34220;280.53430
148.5428;280.72360;0.34914;280.72360
148.6428;280.91300;0.36651;280.91300
148.7428;281.10170;0.36100;281.10170
148.8429;281.29070;0.36140;281.29070
148.9429;281.48000;0.38244;281.48000
149.0429;281.66880;0.37809;281.66880
149.1429;281.85780;0.37481;281.85780
149.2430;282.04680;0.35976;282.04680
149.3430;282.23610;0.38136;282.23610
149.4430;282.42550;0.37146;282.42550
149.5431;282.61420;0.37373;282.61420
149.6431;282.80310;0.35361;282.80310
149.7431;282.99240;0.39801;282.99240
149.8431;283.18120;0.37964;283.18120
149.9432;283.37040;0.38759;283.37040
150.0432;283.55970;0.38755;283.55970
150.1432;283.74860;0.44384;283.74860
150.2433;283.93800;0.45609;283.93800
150.3433;284.12670;0.44883;284.12670
150.4433;284.31560;0.47190;284.31560
150.5433;284.50490;0.47705;284.50490
150.6434;284.69360;0.47861;284.69360
150.7434;284.88290;0.43621;284.88290
150.8434;285.07220;0.38000;285.07220
150.9435;285.26100;0.39733;285.26100
151.0435;285.45050;0.38463;285.45050
151.1435;285.63910;0.41138;285.63910
151.2435;285.82820;0.40978;285.82820
151.3436;286.01730;0.41649;286.01730
151.4436;286.20610;0.40671;286.20610
151.5436;286.39540;0.42056;286.39540
151.6437;286.58460;0.43992;286.58460
151.7437;286.77350;0.41206;286.77350
151.8437;286.96290;0.42883;286.96290
151.9437;287.15160;0.41837;287.15160
152.0438;287.34070;0.41318;287.34070
152.1438;287.52970;0.41677;287.52970
152.2438;287.71860;0.43278;287.71860
152.3439;287.90840;0.44116;287.90840
152.4439;288.09710;0.41709;288.09710
152.5439;288.28600;0.43521;288.28600
152.6439;288.47530;0.43226;288.47530
152.7440;288.66410;0.44152;288.66410
152.8440;288.85320;0.45649;288.85320
152.9440;289.04220;0.45298;289.04220
153.0441;289.23100;0.42827;289.23100
153.1441;289.42090;0.45745;289.42090
153.2441;289.60960;0.50739;289.60960
153.3441;289.79850;0.47869;289.79850
153.4442;289.98780;0.44943;289.98780
153.5442;290.17650;0.47893;290.17650
153.6442;290.36570;0.50320;290.36570
153.7443;290.55460;0.49877;290.55460
153.8443;290.74350;0.50288;290.74350
153.9443;290.93330;0.48168;290.93330
154.0444;291.12200;0.48524;291.12200
154.1444;291.31100;0.52009;291.31100
154.2444;291.50020;0.52500;291.50020
154.3444;291.68900;0.53290;291.68900
154.4445;291.87820;0.54695;291.87820
154.5445;292.06710;0.55159;292.06710
154.6445;292.25640;0.55905;292.25640
154.7446;292.44580;0.56823;292.44580
154.8446;292.63450;0.55458;292.63450
154.9446;292.82350;0.55574;292.82350
155.0446;293.01260;0.56416;293.01260
155.1447;293.20150;0.56356;293.20150
155.2447;293.39080;0.59267;293.39080
155.3447;293.57950;0.58680;293.57950
155.4448;293.76890;0.59965;293.76890
155.5448;293.95830;0.63973;293.95830
155.6448;294.14700;0.62480;294.14700
155.7448;294.33600;0.62289;294.33600
155.8449;294.52510;0.66900;294.52510
155.9449;294.71390;0.67446;294.71390
156.0449;294.90330;0.65774;294.90330
156.1450;295.09200;0.65826;295.09200
156.2450;295.28140;0.75551;295.28140
156.3450;295.47070;0.73954;295.47070
156.4450;295.65950;0.70508;295.65950
156.5451;295.84850;0.71966;295.84850
156.6451;296.03750;0.73183;296.03750
156.7451;296.22640;0.74189;296.22640
156.8452;296.41580;0.80162;296.41580
156.9452;296.60450;0.78553;296.60450
157.0452;296.79380;0.77639;296.79380
157.1452;296.98320;0.75658;296.98320
157.2453;297.17190;0.78257;297.17190
157.3453;297.36100;0.84661;297.36100
157.4453;297.55000;0.84290;297.55000
157.5454;297.73880;0.87974;297.73880
157.6454;297.92820;0.85519;297.92820
157.7454;298.11740;0.88749;298.11740
157.8454;298.30630;0.91443;298.30630
157.9455;298.49560;0.94070;298.49560
158.0455;298.68440;0.95224;298.68440
158.1455;298.87360;0.98238;298.87360
158.2456;299.06240;1.07504;299.06240
158.3456;299.25130;1.11752;299.25130
158.4456;299.44070;1.14670;299.44070
158.5456;299.62980;1.24499;299.62980
158.6457;299.81880;1.37984;299.81880
158.7457;300.00800;1.55179;300.00800
158.8457;300.07670;1.37038;300.07670
158.9458;300.08200;1.34076;300.08200
159.0458;300.11060;1.43526;300.11060
159.1458;300.13970;1.47410;300.13970
159.2458;300.16350;1.49266;300.16350
159.3459;300.18230;1.54588;300.18230
159.4459;300.19790;1.56336;300.19790
159.5459;300.21080;1.60432;300.21080
159.6460;300.22180;1.61051;300.22180
159.7460;300.23190;1.60692;300.23190
159.8460;300.24150;1.63490;300.24150
159.9460;300.24670;1.63095;300.24670
160.0461;300.24980;1.60217;300.24980
160.1461;300.25240;1.61730;300.25240
160.2461;300.25500;1.58233;300.25500
160.3462;300.25770;1.60903;300.25770
160.4462;300.26050;1.60640;300.26050
160.5462;300.26740;1.58388;300.26740
160.6463;300.27770;1.64437;300.27770
160.7463;300.28200;1.68505;300.28200
160.8463;300.28270;1.69858;300.28270
160.9463;300.28430;1.64612;300.28430
161.0464;300.28630;1.68656;300.28630
161.1464;300.28820;1.66656;300.28820
161.2464;300.29030;1.65550;300.29030
161.3465;300.29250;1.64896;300.29250
161.4465;300.29470;1.64005;300.29470
161.5465;300.29650;1.64612;300.29650
161.6465;300.29850;1.64181;300.29850
161.7466;300.30060;1.66840;300.30060
161.8466;300.30260;1.65994;300.30260
161.9466;300.30470;1.62105;300.30470
162.0467;300.30710;1.56931;300.30710
162.1467;300.30940;1.70309;300.30940
162.2467;300.31020;1.65674;300.31020
162.3467;300.31140;1.66644;300.31140
162.4468;300.31280;1.65379;300.31280
162.5468;300.31410;1.67483;300.31410
162.6468;300.31580;1.65750;300.31580
162.7469;300.31740;1.67790;300.31740
162.8469;300.31850;1.69922;300.31850
162.9469;300.32020;1.61031;300.32020
163.0469;300.32250;1.63039;300.32250
163.1470;300.32400;1.67012;300.32400
163.2470;300.32470;1.67507;300.32470
163.3470;300.32580;1.68213;300.32580
163.4471;300.32680;1.70505;300.32680
163.5471;300.32820;1.68664;300.32820
163.6471;300.32910;1.65251;300.32910
163.7471;300.33030;1.65550;300.33030
163.8472;300.33130;1.69028;300.33130
163.9472;300.33270;1.67982;300.33270
164.0472;300.33400;1.66257;300.33400
164.1473;300.33520;1.65690;300.33520
164.2473;300.33630;1.68217;300.33630
164.3473;300.33770;1.67107;300.33770
164.4473;300.33870;1.65690;300.33870
164.5474;300.33990;1.68501;300.33990
164.6474;300.34110;1.67143;300.34110
164.7474;300.34240;1.66916;300.34240
164.8475;300.34350;1.64860;300.34350
164.9475;300.34430;1.68345;300.34430
165.0475;300.34530;1.61766;300.34530
165.1475;300.34690;1.67211;300.34690
165.2476;300.34780;1.68053;300.34780
165.3476;300.34870;1.65810;300.34870
165.4476;300.34960;1.69235;300.34960
165.5477;300.35070;1.65423;300.35070
165.6477;300.35190;1.67367;300.35190
165.7477;300.35300;1.62716;300.35300
165.8477;300.35400;1.67435;300.35400
165.9478;300.35510;1.67970;300.35510
166.0478;300.35620;1.67590;300.35620
166.1478;300.35740;1.61075;300.35740
166.2479;300.35960;1.61355;300.35960
166.3479;300.36200;1.65135;300.36200
166.4479;300.36450;1.66560;300.36450
166.5480;300.36670;1.66449;300.36670
166.6480;300.36890;1.62588;300.36890
166.7480;300.37070;1.65654;300.37070
166.8480;300.37060;1.72712;300.37060
166.9481;300.36910;1.65926;300.36910
167.0481;300.37010;1.63255;300.37010
167.1481;300.37270;1.65826;300.37270
167.2482;300.37510;1.64728;300.37510
167.3482;300.37700;1.63446;300.37700
167.4482;300.37880;1.67610;300.37880
167.5482;300.38050;1.68696;300.38050
167.6483;300.38170;1.66429;300.38170
167.7483;300.38290;1.71718;300.38290
167.8483;300.38250;1.68608;300.38250
167.9484;300.38180;1.65287;300.38180
168.0484;300.38280;1.68357;300.38280
168.1484;300.38360;1.67107;300.38360
168.2484;300.38400;1.65762;300.38400
168.3485;300.38480;1.67898;300.38480
168.4485;300.38570;1.66193;300.38570
168.5485;300.38700;1.68668;300.38700
168.6486;300.38790;1.65439;300.38790
168.7486;300.38880;1.68824;300.38880
168.8486;300.38970;1.67606;300.38970
168.9486;300.39080;1.66189;300.39080
169.0487;300.39150;1.66041;300.39150
169.1487;300.39260;1.67822;300.39260
169.2487;300.39360;1.66337;300.39360
169.3488;300.39470;1.66161;300.39470
169.4488;300.39580;1.65247;300.39580
169.5488;300.39710;1.70525;300.39710
169.6488;300.39800;1.66073;300.39800
169.7489;300.39950;1.66936;300.39950
169.8489;300.40060;1.69016;300.40060
169.9489;300.40130;1.68489;300.40130
170.0490;300.40210;1.67451;300.40210
170.1490;300.40310;1.65494;300.40310
170.2490;300.40430;1.65986;300.40430
170.3490;300.40540;1.68537;300.40540
170.4491;300.40630;1.68772;300.40630
170.5491;300.40730;1.68105;300.40730
170.6491;300.40900;1.63127;300.40900
170.7492;300.41130;1.63686;300.41130
170.8492;300.41370;1.66245;300.41370
170.9492;300.41600;1.66037;300.41600
171.0492;300.41810;1.64932;300.41810
171.1493;300.41990;1.65195;300.41990
171.2493;300.42150;1.67047;300.42150
171.3493;300.42260;1.67918;300.42260
171.4494;300.42400;1.66512;300.42400
171.5494;300.42540;1.65810;300.42540
171.6494;300.42690;1.67283;300.42690
171.7494;300.42810;1.66145;300.42810
171.8495;300.42830;1.71626;300.42830
171.9495;300.42720;1.67479;300.42720
172.0495;300.42800;1.66177;300.42800
172.1496;300.42950;1.68193;300.42950
172.2496;300.42990;1.65630;300.42990
172.3496;300.43140;1.62472;300.43140
172.4496;300.43300;1.69618;300.43300
172.5497;300.43280;1.68908;300.43280
172.6497;300.43340;1.65498;300.43340
172.7497;300.43460;1.68816;300.43460
172.8498;300.43540;1.65391;300.43540
172.9498;300.43620;1.66548;300.43620
173.0498;300.43690;1.65379;300.43690
173.1499;300.43810;1.68672;300.43810
173.2499;300.43880;1.66576;300.43880
173.3499;300.43950;1.67790;300.43950
173.4499;300.44070;1.67690;300.44070
173.5500;300.44180;1.67103;300.44180
173.6500;300.44290;1.66041;300.44290
173.7500;300.44380;1.65263;300.44380
173.8501;300.44500;1.69243;300.44500
173.9501;300.44590;1.72086;300.44590
174.0501;300.44690;1.65722;300.44690
174.1501;300.44770;1.68313;300.44770
174.2502;300.44830;1.66716;300.44830
174.3502;300.44970;1.68940;300.44970
174.4502;300.45060;1.69455;300.45060
174.5503;300.45230;1.63973;300.45230
174.6503;300.45460;1.62744;300.45460
174.7503;300.45700;1.68716;300.45700
174.8503;300.45720;1.65694;300.45720
174.9504;300.45770;1.67219;300.45770
175.0504;300.45880;1.69642;300.45880
175.1504;300.45940;1.68006;300.45940
175.2505;300.46050;1.67686;300.46050
175.3505;300.46160;1.67818;300.46160
175.4505;300.46250;1.64760;300.46250
175.5505;300.46360;1.65710;300.46360
175.6506;300.46440;1.67008;300.46440
175.7506;300.46510;1.66640;300.46510
175.8506;300.46610;1.69159;300.46610
175.9507;300.46730;1.65818;300.46730
176.0507;300.46840;1.66712;300.46840
176.1507;300.46940;1.70421;300.46940
176.2507;300.47040;1.67463;300.47040
176.3508;300.47140;1.65558;300.47140
176.4508;300.47270;1.68417;300.47270
176.5508;300.47370;1.65007;300.47370
176.6509;300.47450;1.65702;300.47450
176.7509;300.47570;1.67159;300.47570
176.8509;300.47690;1.64069;300.47690
176.9509;300.47830;1.63267;300.47830
177.0510;300.48050;1.64141;300.48050
177.1510;300.48290;1.62632;300.48290
177.2510;300.48520;1.65163;300.48520
177.3511;300.48720;1.64297;300.48720
177.4511;300.48890;1.66053;300.48890
177.5511;300.49040;1.67998;300.49040
177.6511;300.49160;1.67179;300.49160
177.7512;300.49260;1.66748;300.49260
177.8512;300.49380;1.65658;300.49380
177.9512;300.49500;1.66029;300.49500
178.0513;300.49640;1.70433;300.49640
178.1513;300.49780;1.66728;300.49780
178.2513;300.49910;1.67614;300.49910
178.3513;300.50040;1.68664;300.50040
178.4514;300.50160;1.64564;300.50160
178.5514;300.50280;1.66960;300.50280
178.6514;300.50400;1.64836;300.50400
178.7515;300.50520;1.69582;300.50520
178.8515;300.50590;1.68385;300.50590
178.9515;300.50710;1.67690;300.50710
179.0516;300.50850;1.64484;300.50850
179.1516;300.50950;1.66209;300.50950
179.2516;300.51090;1.67171;300.51090
179.3516;300.51210;1.70401;300.51210
179.4517;300.51280;1.72417;300.51280
179.5517;300.51160;1.66872;300.51160
179.6517;300.51160;1.67467;300.51160
179.7518;300.51350;1.64991;300.51350
179.8518;300.51590;1.64732;300.51590
179.9518;300.51790;1.63758;300.51790
180.0518;300.51930;1.65279;300.51930
180.1519;300.52050;1.65626;300.52050
180.2519;300.52180;1.69048;300.52180
180.3519;300.52310;1.68265;300.52310
180.4520;300.52420;1.65343;300.52420
180.5520;300.52520;1.65275;300.52520
180.6520;300.52660;1.67275;300.52660
180.7520;300.52760;1.67467;300.52760
180.8521;300.52860;1.67119;300.52860
180.9521;300.52970;1.69774;300.52970
181.0521;300.53080;1.67451;300.53080
181.1522;300.53180;1.70377;300.53180
181.2522;300.53270;1.67139;300.53270
181.3522;300.53390;1.68213;300.53390
181.4522;300.53520;1.66748;300.53520
181.5523;300.53650;1.65287;300.53650
181.6523;300.53740;1.67215;300.53740
181.7523;300.53850;1.66736;300.53850
181.8524;300.53940;1.67407;300.53940
181.9524;300.54040;1.71231;300.54040
182.0524;300.54020;1.64157;300.54020
182.1524;300.54110;1.64309;300.54110
182.2525;300.54320;1.66800;300.54320
182.3525;300.54430;1.67119;300.54430
182.4525;300.54560;1.66181;300.54560
182.5526;300.54690;1.66892;300.54690
182.6526;300.54840;1.68006;300.54840
182.7526;300.54950;1.68632;300.54950
182.8526;300.55070;1.68233;300.55070
182.9527;300.55170;1.68636;300.55170
183.0527;300.55310;1.65439;300.55310
183.1527;300.55450;1.70157;300.55450
183.2528;300.55580;1.67171;300.55580
183.3528;300.55680;1.65742;300.55680
183.4528;300.55790;1.65922;300.55790
183.5528;300.55890;1.67431;300.55890
183.6529;300.55990;1.67722;300.55990
183.7529;300.56080;1.68588;300.56080
183.8529;300.56190;1.70600;300.56190
183.9530;300.56310;1.68848;300.56310
184.0530;300.56410;1.68441;300.56410
184.1530;300.56570;1.66265;300.56570
184.2530;300.56670;1.68784;300.56670
184.3531;300.56760;1.67858;300.56760
184.4531;300.56860;1.66984;300.56860
184.5531;300.56970;1.65586;300.56970
184.6532;300.57050;1.65095;300.57050
184.7532;300.57170;1.65479;300.57170
184.8532;300.57290;1.65658;300.57290
184.9532;300.57290;1.72744;300.57290
185.0533;300.57160;1.64872;300.57160
185.1533;300.57250;1.66445;300.57250
185.2533;300.57370;1.68856;300.57370
185.3534;300.57350;1.64009;300.57350
185.4534;300.57390;1.65846;300.57390
185.5534;300.57480;1.68089;300.57480
185.6535;300.57540;1.66341;300.57540
185.7535;300.57630;1.66241;300.57630
185.8535;300.57760;1.65614;300.57760
185.9535;300.57990;1.68089;300.57990
186.0536;300.58220;1.67171;300.58220
186.1536;300.58440;1.66501;300.58440
186.2536;300.58610;1.66784;300.58610
186.3537;300.58770;1.67898;300.58770
186.4537;300.58910;1.67391;300.58910
186.5537;300.59020;1.66772;300.59020
186.6537;300.59150;1.64233;300.59150
186.7538;300.59240;1.67870;300.59240
186.8538;300.59350;1.68780;300.59350
186.9538;300.59480;1.65111;300.59480
187.0539;300.59570;1.64948;300.59570
187.1539;300.59680;1.63830;300.59680
187.2539;300.59790;1.68744;300.59790
187.3539;300.59910;1.66816;300.59910
187.4540;300.59990;1.64856;300.59990
187.5540;300.60070;1.73096;300.60070
187.6540;300.59960;1.67135;300.59960
187.7541;300.59970;1.66796;300.59970
187.8541;300.60090;1.68880;300.60090
187.9541;300.60130;1.67291;300.60130
188.0541;300.60150;1.67247;300.60150
188.1542;300.60180;1.67714;300.60180
188.2542;300.60250;1.68429;300.60250
188.3542;300.60320;1.67443;300.60320
188.4543;300.60410;1.70277;300.60410
188.5543;300.60500;1.65750;300.60500
188.6543;300.60560;1.66700;300.60560
188.7543;300.60690;1.67279;300.60690
188.8544;300.60800;1.64137;300.60800
188.9544;300.61000;1.65335;300.61000
189.0544;300.61240;1.64397;300.61240
189.1545;300.61460;1.66684;300.61460
189.2545;300.61670;1.66584;300.61670
189.3545;300.61820;1.65986;300.61820
189.4545;300.61960;1.65035;300.61960
189.5546;300.61970;1.69730;300.61970
189.6546;300.61860;1.64277;300.61860
189.7546;300.61960;1.69495;300.61960
189.8547;300.62080;1.66872;300.62080
189.9547;300.91270;3.67922;300.91270
190.0547;301.40110;5.35749;301.40110
190.1547;301.92800;6.16691;301.92800
190.2548;302.46040;6.71915;302.46040
190.3548;302.99410;7.23909;302.99410
190.4548;303.52800;7.63040;303.52800
190.5549;304.06190;8.04228;304.06190
190.6549;304.59580;8.41207;304.59580
190.7549;305.12980;8.73544;305.12980
190.8549;305.66380;9.02671;305.66380
190.9550;306.19910;9.33638;306.19910
191.0550;306.73300;9.63296;306.73300
191.1550;307.26690;9.91325;307.26690
191.2551;307.80090;10.22097;307.80090
191.3551;308.33490;10.49184;308.33490
191.4551;308.86910;10.76930;308.86910
191.5552;309.40330;11.07594;309.40330
191.6552;309.93740;11.34465;309.93740
191.7552;310.47270;11.60997;310.47270
191.8552;311.00670;11.94208;311.00670
191.9553;311.54060;12.15267;311.54060
192.0553;312.07450;12.38158;312.07450
192.1553;312.60840;12.58362;312.60840
192.2554;313.14250;12.76798;313.14250
192.3554;313.67650;12.91090;313.67650
192.4554;314.21180;13.10436;314.21180
192.5554;314.74570;13.27770;314.74570
192.6555;315.27960;13.46438;315.27960
192.7555;315.81360;13.64359;315.81360
192.8555;316.34770;13.86264;316.34770
192.9556;316.88180;14.02604;316.88180
193.0556;317.41600;14.23850;317.41600
193.1556;317.95010;14.43053;317.95010
193.2556;318.48540;14.59325;318.48540
193.3557;319.01930;14.76064;319.01930
193.4557;319.55320;14.96241;319.55320
193.5557;320.08720;15.09055;320.08720
193.6434;320.55580;15.19802;320.55580
193.6558;320.62120;15.13179;320.62120
193.7558;321.15510;15.06684;321.15510
193.8558;321.68920;14.86352;321.68920
193.9558;322.22310;14.66974;322.22310
194.0559;322.75830;14.52502;322.75830
194.1559;323.29230;14.38973;323.29230
194.2559;323.82640;14.27495;323.82640
194.3560;324.36050;14.18684;324.36050
194.4560;324.89460;14.17559;324.89460
194.5560;325.42880;14.13127;325.42880
194.6560;325.96280;14.13503;325.96280
194.7561;326.49800;14.18181;326.49800
194.8561;327.03200;14.14560;327.03200
194.9561;327.56590;14.14652;327.56590
195.0562;328.09990;14.16101;328.09990
195.1562;328.63390;14.18920;328.63390
195.2562;329.16780;14.31779;329.16780
195.3562;329.70180;14.29443;329.70180
195.4563;330.23570;14.31228;330.23570
195.5563;330.77100;14.27791;330.77100
195.6563;331.30490;14.26489;331.30490
195.7564;331.83900;14.29236;331.83900
195.8564;332.37320;14.29607;332.37320
195.9564;332.90740;14.32170;332.90740
196.0564;333.44150;14.25244;333.44150
196.1565;333.97540;14.24928;333.97540
196.2565;334.50940;14.23407;334.50940
196.3565;335.04460;14.23822;335.04460
196.4566;335.57850;14.29902;335.57850
196.5566;336.11250;14.28745;336.11250
196.6566;336.64650;14.30346;336.64650
196.7566;337.18050;14.32278;337.18050
196.8567;337.71450;14.35040;337.71450
196.9567;338.24840;14.35803;338.24840
197.0567;338.78230;14.38621;338.78230
197.1568;339.31760;14.39687;339.31760
197.2568;339.85170;14.43751;339.85170
197.3568;340.38590;14.43632;340.38590
197.4568;340.92010;14.48127;340.92010
197.5569;341.45420;14.42897;341.45420
197.6569;341.98810;14.35815;341.98810
197.7569;342.52200;14.38454;342.52200
197.8570;343.05730;14.30330;343.05730
197.9570;343.59120;14.21587;343.59120
198.0570;344.12520;14.25818;344.12520
198.1571;344.65910;14.16864;344.65910
198.2571;345.19320;14.19623;345.19320
198.3571;345.72710;14.18273;345.72710
198.4571;346.26100;14.11850;346.26100
198.5572;346.79500;14.09690;346.79500
198.6572;347.33040;14.06496;347.33040
198.7572;347.86450;14.06800;347.86450
198.8573;348.39860;14.04053;348.39860
198.9573;348.93280;14.01626;348.93280
199.0573;349.46680;13.99007;349.46680
199.1573;350.00080;13.97917;350.00080
199.2574;350.53470;13.99207;350.53470
199.3574;351.06860;14.06145;351.06860
199.4574;351.60390;14.04867;351.60390
199.5575;352.13780;14.06181;352.13780
199.6575;352.67180;14.07359;352.67180
199.7575;353.20580;14.09115;353.20580
199.8575;353.73970;14.08177;353.73970
199.9576;354.27360;14.12744;354.27360
200.0576;354.80760;14.10868;354.80760
200.1576;355.34310;14.16149;355.34310
200.2577;355.87720;14.15938;355.87720
200.3577;356.41140;14.20209;356.41140
200.4577;356.94550;14.24242;356.94550
200.5577;357.47940;14.27447;357.47940
200.6578;358.01340;14.31224;358.01340
200.7578;358.54720;14.34757;358.54720
200.8578;359.08120;14.28785;359.08120
200.9579;359.61650;14.31120;359.61650
201.0579;360.15050;14.39699;360.15050
201.1579;360.68450;14.39991;360.68450
201.2579;361.21840;14.44107;361.21840
201.3580;361.75240;14.43636;361.75240
201.4580;362.28630;14.47464;362.28630
201.5580;362.82030;14.42789;362.82030
201.6581;363.35440;14.44262;363.35440
201.7581;363.88990;14.45783;363.88990
201.8581;364.42410;14.44378;364.42410
201.9581;364.95820;14.38194;364.95820
202.0582;365.49210;14.44334;365.49210
202.1582;366.02610;14.37284;366.02610
202.2582;366.55990;14.30521;366.55990
202.3583;367.09380;14.27224;367.09380
202.4583;367.62780;14.21882;367.62780
202.5583;368.16320;14.21207;368.16320
202.6583;368.69720;14.22158;368.69720
202.7584;369.23110;14.25531;369.23110
202.8584;369.75510;14.00576;369.75510
202.9584;369.95430;11.71772;369.95430
203.0096;369.98040;10.72399;369.98040
203.0585;369.72070;4.13676;369.72070
203.1585;368.18460;-0.47357;368.18460
203.2585;366.26710;-0.49405;366.26710
203.3585;364.28360;-0.43692;364.28360
203.4586;362.28670;-0.47484;362.28670
203.5586;360.28730;-0.48934;360.28730
203.6586;358.28740;-0.47716;358.28740
203.7587;356.28740;-0.52503;356.28740
203.8587;354.28740;-0.55361;354.28740
203.9587;352.28740;-0.57493;352.28740
204.0588;350.28240;-0.55181;350.28240
204.1588;348.28240;-0.54195;348.28240
204.2588;346.28240;-0.57768;346.28240
204.3588;344.28240;-0.59513;344.28240
204.4589;342.28240;-0.57481;342.28240
204.5589;340.28240;-0.55573;340.28240
204.6589;338.28240;-0.57545;338.28240
204.7590;336.28240;-0.61605;336.28240
204.8590;334.27740;-0.61780;334.27740
204.9590;332.27740;-0.64232;332.27740
205.0590;330.27740;-0.57046;330.27740
205.1591;328.27740;-0.56271;328.27740
205.2591;326.27740;-0.52606;326.27740
205.3591;324.27740;-0.52982;324.27740
205.4592;322.27740;-0.50810;322.27740
205.5592;320.27240;-0.53704;320.27240
205.6592;318.27240;-0.54103;318.27240
205.7592;316.27240;-0.55900;316.27240
205.8593;314.27240;-0.54866;314.27240
205.9593;312.27240;-0.58363;312.27240
206.0593;310.27240;-0.55098;310.27240
206.1594;308.27240;-0.55569;308.27240
206.2594;306.27240;-0.56467;306.27240
206.3594;304.26740;-0.52171;304.26740
206.4594;302.26740;-0.48566;302.26740
206.5595;300.26740;-0.51413;300.26740
206.6595;298.26740;-0.54191;298.26740
206.7595;296.26740;-0.54862;296.26740
206.8596;294.26740;-0.58347;294.26740
206.9596;292.26740;-0.58383;292.26740
207.0596;290.26740;-0.60116;290.26740
207.1596;288.26230;-0.55996;288.26230
207.2597;286.26240;-0.54195;286.26240
207.3597;284.26230;-0.53293;284.26230
207.4597;282.26230;-0.51800;282.26230
207.5598;280.26230;-0.53644;280.26230
207.6598;278.26230;-0.57345;278.26230
207.7598;276.26240;-0.58471;276.26240
207.8598;274.26240;-0.57577;274.26240
207.9599;272.25730;-0.59948;272.25730
208.0599;270.25730;-0.60255;270.25730
208.1599;268.25730;-0.58934;268.25730
208.2600;266.25730;-0.60838;266.25730
208.3600;264.25730;-0.58535;264.25730
208.4600;262.25730;-0.52678;262.25730
208.5600;260.25730;-0.56874;260.25730
208.6601;258.25230;-0.53740;258.25230
208.7601;256.25230;-0.57361;256.25230
208.8601;254.25230;-0.58048;254.25230
208.9602;252.25230;-0.62204;252.25230
209.0602;250.25230;-0.66344;250.25230
209.1602;248.25230;-0.64539;248.25230
209.2602;246.25240;-0.64599;246.25240
209.3603;244.25230;-0.63010;244.25230
209.4603;242.24730;-0.59477;242.24730
209.5603;240.24730;-0.60607;240.24730
209.6604;238.24730;-0.64136;238.24730
209.7604;236.24730;-0.63533;236.24730
209.8604;234.24730;-0.65797;234.24730
209.9604;232.24730;-0.62591;232.24730
210.0605;230.24730;-0.67801;230.24730
210.1605;228.24730;-0.68356;228.24730
210.2605;226.24230;-0.60579;226.24230
210.3606;224.24230;-0.60419;224.24230
210.4606;222.24230;-0.59856;222.24230
210.5606;220.24230;-0.63417;220.24230
210.6607;218.24230;-0.61453;218.24230
210.7607;216.24230;-0.65365;216.24230
210.8607;214.24230;-0.65046;214.24230
210.9607;212.24230;-0.66252;212.24230
211.0608;210.23730;-0.67765;210.23730
211.1608;208.23730;-0.69493;208.23730
211.2608;206.23730;-0.63070;206.23730
211.3609;204.23730;-0.60786;204.23730
211.4609;202.23730;-0.59669;202.23730
211.5609;200.23730;-0.60491;200.23730
211.6609;198.23730;-0.63010;198.23730
211.7610;196.23230;-0.63154;196.23230
211.8610;194.23230;-0.63924;194.23230
211.9610;192.23230;-0.65465;192.23230
212.0611;190.23230;-0.66060;190.23230
212.1611;188.23230;-0.62998;188.23230
212.2611;186.23230;-0.63449;186.23230
212.3611;184.23230;-0.59784;184.23230
212.4612;182.23230;-0.61357;182.23230
212.5612;180.22730;-0.56543;180.22730
212.6612;178.22730;-0.57269;178.22730
212.7613;176.22730;-0.60786;176.22730
212.8613;174.22730;-0.56894;174.22730
212.9613;172.22730;-0.68008;172.22730
213.0613;170.22730;-0.68300;170.22730
213.1614;168.22730;-0.63980;168.22730
213.2614;166.22730;-0.63581;166.22730
213.3614;164.22230;-0.60651;164.22230
213.4615;162.22230;-0.62543;162.22230
213.5615;160.22230;-0.51449;160.22230
213.6615;158.22230;-0.56451;158.22230
213.7615;156.22230;-0.58882;156.22230
213.8616;154.22230;-0.59872;154.22230
213.9616;152.22230;-0.66312;152.22230
214.0616;150.21730;-0.62260;150.21730
214.1617;148.21730;-0.60635;148.21730
214.2617;146.21730;-0.60874;146.21730
214.3617;144.21730;-0.57477;144.21730
214.4617;142.21730;-0.55832;142.21730
214.5618;140.21730;-0.56080;140.21730
214.6618;138.21730;-0.60667;138.21730
214.7618;136.21730;-0.60000;136.21730
214.8619;134.21230;-0.60727;134.21230
214.9619;132.21230;-0.63074;132.21230
215.0619;130.21230;-0.63860;130.21230
215.1619;128.21230;-0.64563;128.21230
215.2620;126.21230;-0.61110;126.21230
215.3620;124.21230;-0.62016;124.21230
215.4620;122.21230;-0.59174;122.21230
215.5621;120.21230;-0.61601;120.21230
215.6621;118.20730;-0.60810;118.20730
215.7621;116.20730;-0.66898;116.20730
215.8621;114.20730;-0.68635;114.20730
215.9622;112.20730;-0.68344;112.20730
216.0622;110.20730;-0.67282;110.20730
216.1622;108.20730;-0.71294;108.20730
216.2623;106.20730;-0.69362;106.20730
216.3623;104.20230;-0.68887;104.20230
216.4623;102.20230;-0.65773;102.20230
216.5624;100.20230;-0.68403;100.20230
216.6624;98.20230;-0.67026;98.20230
216.7624;96.20230;-0.70931;96.20230
216.8624;94.20230;-0.74587;94.20230
216.9625;92.20230;-0.73637;92.20230
217.0625;90.20230;-0.76220;90.20230
217.1625;88.19730;-0.73565;88.19730
217.2626;86.19730;-0.71913;86.19730
217.3626;84.19730;-0.70236;84.19730
217.4626;82.19730;-0.68695;82.19730
217.5626;80.19730;-0.59980;80.19730
217.6627;78.19730;-0.69701;78.19730
217.7627;76.19730;-0.72296;76.19730
217.8627;74.19730;-0.74531;74.19730
217.9628;72.19230;-0.78588;72.19230
218.0628;70.19230;-0.71442;70.19230
218.1628;68.19230;-0.78200;68.19230
218.2628;66.19230;-0.75881;66.19230
218.3629;64.19230;-0.72675;64.19230
218.4629;62.19230;-0.72731;62.19230
218.5629;60.19230;-0.73781;60.19230
218.6630;58.19230;-0.72619;58.19230
218.7630;56.18730;-0.77047;56.18730
218.8630;54.18730;-0.75813;54.18730
218.9630;52.18730;-0.79582;52.18730
219.0631;50.18730;-0.81885;50.18730
219.1631;48.18730;-0.80141;48.18730
219.2631;46.18730;-0.78160;46.18730
219.3632;44.18730;-0.75374;44.18730
219.4632;42.18230;-0.75250;42.18230
219.5632;40.18230;-0.77597;40.18230
219.6632;38.18230;-0.79326;38.18230
219.7633;36.18230;-0.80204;36.18230
219.8633;34.18230;-0.84013;34.18230
219.9633;32.18230;-0.83745;32.18230
220.0634;30.18230;-0.85718;30.18230
220.1634;28.18230;-0.81785;28.18230
220.2634;26.17730;-0.80105;26.17730
220.3634;24.17730;-0.74811;24.17730
220.4635;22.17730;-0.73222;22.17730
220.5635;20.17730;-0.78416;20.17730
220.6635;18.17730;-0.80268;18.17730
220.7636;16.17730;-0.78743;16.17730
220.8636;14.17730;-0.84724;14.17730
220.9636;12.17730;-0.90596;12.17730
221.0175;11.09750;-0.97522;11.09750
221.0636;10.17230;-0.93534;10.17230
221.1637;8.17230;-0.88692;8.17230
221.2637;6.17230;-0.75038;6.17230
221.3637;4.17230;-0.73701;4.17230
221.4638;2.17230;-0.72651;2.17230
221.5638;0.51100;-0.70771;0.51100
221.6638;0.09650;-0.72903;0.09650










Sequence Editor;
Main;Label;LABEL;1;
;Motion;MOTION;Reference;ABSOLUTE;Position;250.00;mm;User;SPEED;10.000;mm/s;User;Max. force;2.00;kN;User;Tara;Disabled;Tara. position;0.00;mm;User;Deformation;0.0000;mm/kN;User;Stop on external signal;False;Condition;FORCE;Force;0.30;kN;User;Approach;ABSOLUTE_FROM_BELOW;
;Motion;MOTION;Reference;ABSOLUTE;Position;350.00;mm;User;SPEED;1.890;mm/s;User;Max. force;3.00;kN;User;Tara;Disabled;Tara. position;0.00;mm;User;Deformation;0.0000;mm/kN;User;Stop on external signal;False;Condition;FORCE;Force;1.68;kN;User;Approach;ABSOLUTE_FROM_BELOW;
;Timer;TIMER;100;ms;User;
;Motion;MOTION;Reference;ABSOLUTE;Position;360.00;mm;User;SPEED;1.890;mm/s;User;Max. force;2.00;kN;User;Tara;Disabled;Tara. position;0.00;mm;User;Deformation;0.0000;mm/kN;User;Stop on external signal;False;Condition;FORCE_FEEDBACK;;;;;;;Force target value;1.68;kN;User;Regulation speed;0.500;mm/s;User;Start control time;1.68;kN;User;Force barrier;1.7;kN;User;Regulation time;30.00;s;User;Feedback direction;from below;
;Motion;MOTION;Reference;ABSOLUTE;Position;370.00;mm;User;SPEED;5.340;mm/s;User;Max. force;66.00;kN;User;Tara;Disabled;Tara. position;0.00;mm;User;Deformation;0.0000;mm/kN;User;Stop on external signal;False;Condition;POSITION;
;Home position;HOME_POSITION;Reference;ABSOLUTE;Position;0.00;mm;User;SPEED;20.000;mm/s;User;Max. force;60.00;kN;User;Min. force;-60.00;kN;User;
;Wait;WAIT;
;Sequence end;SEQUENCE_END;
Sub.1;Label;LABEL;1;
Sub.2;Label;LABEL;1;
Sub.3;Label;LABEL;1;
